"rt","stimulus","key_press","trial_type","trial_index","time_elapsed","internal_node_id","stim","noise","action","scramble","communicative","trial_number","index","workerId","response"
"3331.7000000029802","<p style=""font-size:26px;""> Hello and thank you for taking part in our experiment! </p><p style=""font-size:24px;""> The experiment consist of a Human Detection Task followed by some questionnaires, and it takes around 30 minutes to complete. </p><p style=""font-size:22px;""> <i> Press the spacebar to continue. </i> </p>","32","html-keyboard-response","0","3336","0.0-0.0","","","","","","","","",""
"6148.79999999702","<p style=""font-size:26px;""> Please ensure the following: </p><p style=""font-size:22px;""> (1) You are in a room with no distractions (no people, music, phones, etc.), </p><p style=""font-size:22px;""> (2) For the next 30 minutes, you will be able to stay focused on the task and questionnaires, </p><p style=""font-size:22px;""> As the study progresses, you may find that you start to feel tired. Please do your best to stay focused throughout, since our research depends on it! </p><p style=""font-size:24px;""> <i> Press the spacebar to continue. </i> </p>","32","html-keyboard-response","1","9486","0.0-1.0","","","","","","","","",""
"13307.29999999702","<p style=""font-size:26px;""> Human Detection Task </p><p style=""font-size:22px;""> In this task, you will see a series of videos containing one or two people. </p><p style=""font-size:22px;""> In half of the videos there will be two people -one on each side of the screen-, but one person will be masked with moving dots. </p><p style=""font-size:22px;""> For the other half of the videos there will be only one person on one side, and on the other side there will be only moving  dots. </p><p style=""font-size:22px;""> In the next screen, you will see three example videos with two people. One person will be masked with few moving dots. You do not need to do anything now, just see. </p><p style=""font-size:24px;""> <i> Press the spacebar to continue. </i> </p>","32","html-keyboard-response","2","22794","0.0-2.0","","","","","","","","",""
"null","<div id=""right-fixation"" style=""font-size: 60px; color: white; position: absolute; left: 60%; top: 50%; transform: translate(-50%, -50%);"">+</div>","null","html-keyboard-response","3","23805","0.0-3.0-0.0","stim/practice/noi001_act01_scr0_con1_tri005.mp4","001","01","0","1","005","","",""
"null","","null","video-keyboard-response","4","28940","0.0-3.0-1.0","stim/practice/noi001_act01_scr0_con1_tri005.mp4","001","01","0","1","005","","",""
"null","<div id=""left-fixation"" style=""font-size: 60px; color: white; position: absolute; left: 40%; top: 50%; transform: translate(-50%, -50%);"">+</div>","null","html-keyboard-response","5","29953","0.0-3.0-0.1","stim/practice/noi001_act08_scr0_con0_tri042.mp4","001","08","0","0","042","","",""
"null","","null","video-keyboard-response","6","35654","0.0-3.0-1.1","stim/practice/noi001_act08_scr0_con0_tri042.mp4","001","08","0","0","042","","",""
"null","<div id=""left-fixation"" style=""font-size: 60px; color: white; position: absolute; left: 40%; top: 50%; transform: translate(-50%, -50%);"">+</div>","null","html-keyboard-response","7","36670","0.0-3.0-0.2","stim/practice/noi001_act10_scr0_con1_tri019.mp4","001","10","0","1","019","","",""
"null","","null","video-keyboard-response","8","42853","0.0-3.0-1.2","stim/practice/noi001_act10_scr0_con1_tri019.mp4","001","10","0","1","019","","",""
"13454.70000000298","<p style=""font-size:26px;""> Human Detection Task </p><p style=""font-size:22px;""> In these videos you should have seen two people, one on each side of the screen. </p><p style=""font-size:22px;""> As you may have noticed, one of the human shapes had extra moving dots and less dots conforming the human shape. But you are still able to idenfity a human form. </p><p style=""font-size:22px;""> In the next screen, you will see three example videos with only one person on one side, and on the other side you will only see moving dots. </p><p style=""font-size:24px;""> <i> Press the spacebar to continue. </i> </p>","32","html-keyboard-response","9","56308","0.0-4.0","","","","","","","","",""
"null","<div id=""right-fixation"" style=""font-size: 60px; color: white; position: absolute; left: 60%; top: 50%; transform: translate(-50%, -50%);"">+</div>","null","html-keyboard-response","10","57310","0.0-5.0-0.0","stim/practice/noi001_act01_scr1_con0_tri006.mp4","001","01","1","0","006","","",""
"null","","null","video-keyboard-response","11","62447","0.0-5.0-1.0","stim/practice/noi001_act01_scr1_con0_tri006.mp4","001","01","1","0","006","","",""
"null","<div id=""right-fixation"" style=""font-size: 60px; color: white; position: absolute; left: 60%; top: 50%; transform: translate(-50%, -50%);"">+</div>","null","html-keyboard-response","12","63460","0.0-5.0-0.1","stim/practice/noi001_act03_scr1_con0_tri073.mp4","001","03","1","0","073","","",""
"null","","null","video-keyboard-response","13","69162","0.0-5.0-1.1","stim/practice/noi001_act03_scr1_con0_tri073.mp4","001","03","1","0","073","","",""
"null","<div id=""right-fixation"" style=""font-size: 60px; color: white; position: absolute; left: 60%; top: 50%; transform: translate(-50%, -50%);"">+</div>","null","html-keyboard-response","14","70166","0.0-5.0-0.2","stim/practice/noi001_act05_scr1_con1_tri002.mp4","001","05","1","1","002","","",""
"null","","null","video-keyboard-response","15","76344","0.0-5.0-1.2","stim/practice/noi001_act05_scr1_con1_tri002.mp4","001","05","1","1","002","","",""
"17296","<p style=""font-size:26px;""> Human Detection Task </p><p style=""font-size:22px;""> Your job will be to detect if there is a person within the moving dots part of the screen. </p><p style=""font-size:22px;""> For each video, please report as accurately as possible whether you saw two people or only one. </p><p style=""font-size:22px;""> Press ""J"" for saying ""Yes, I saw a second person"". </p><p style=""font-size:22px;""> Press ""F"" to say ""No, I did not see a second person"". </p><p style=""font-size:24px;""> <i> Press the spacebar to continue. </i> </p>","32","html-keyboard-response","16","93640","0.0-6.0","","","","","","","","",""
"14814.79999999702","<p style=""font-size:22px;""> After detecting (""J"") or not detecting (""F"") the second person, you will be asked how confident you were with your choice. </p><p style=""font-size:22px;""> Press 1, 2, 3, 4, or 5 on your keyboard to rate your confidence level, where 1 is not confident at all and 5 is very confident. </p><p style=""font-size:22px;""> The task consist in 72 test videos, which will not be as easy as the example videos that you just saw. </p><p style=""font-size:24px;""> <i> Press the spacebar to continue. </i> </p>","32","html-keyboard-response","17","108456","0.0-7.0","","","","","","","","",""
"null","<div id=""right-fixation"" style=""font-size: 60px; color: white; position: absolute; left: 60%; top: 50%; transform: translate(-50%, -50%);"">+</div>","null","html-keyboard-response","18","109460","0.0-8.0-0.0","stim/test/noi005_act05_scr0_con0_tri001.mp4","005","05","0","0","001","","",""
"null","","null","video-keyboard-response","19","115651","0.0-8.0-1.0","stim/test/noi005_act05_scr0_con0_tri001.mp4","005","05","0","0","001","","",""
"375.5","<div style=""font-size:24px; color:white;"">Did you see a second person in the moving dots?</div><p style=""font-size:24px;""> <i> Press ""F"" for No or ""J"" for Yes. </i> </p>","70","html-keyboard-response","20","116027","0.0-8.0-2.0","stim/test/noi005_act05_scr0_con0_tri001.mp4","005","05","0","0","001","1","A2PR7FI9TP8XLD","no"
"6292.5999999940395","<div style=""font-size:24px; color:white;"">How confident are you? (from 1 to 5)</div><p style=""font-size:24px;""> <i> 1 = Not confident at all, 5 = Very confident. </i> </p>","52","html-keyboard-response","21","122319","0.0-8.0-3.0","stim/test/noi005_act05_scr0_con0_tri001.mp4","005","05","0","0","001","1","A2PR7FI9TP8XLD","4"
"null","<div id=""left-fixation"" style=""font-size: 60px; color: white; position: absolute; left: 40%; top: 50%; transform: translate(-50%, -50%);"">+</div>","null","html-keyboard-response","22","123322","0.0-8.0-0.1","stim/test/noi005_act08_scr0_con0_tri023.mp4","005","08","0","0","023","","",""
"null","","null","video-keyboard-response","23","129030","0.0-8.0-1.1","stim/test/noi005_act08_scr0_con0_tri023.mp4","005","08","0","0","023","","",""
"2667.800000011921","<div style=""font-size:24px; color:white;"">Did you see a second person in the moving dots?</div><p style=""font-size:24px;""> <i> Press ""F"" for No or ""J"" for Yes. </i> </p>","70","html-keyboard-response","24","131699","0.0-8.0-2.1","stim/test/noi005_act08_scr0_con0_tri023.mp4","005","08","0","0","023","2","A2PR7FI9TP8XLD","no"
"1202.2999999970198","<div style=""font-size:24px; color:white;"">How confident are you? (from 1 to 5)</div><p style=""font-size:24px;""> <i> 1 = Not confident at all, 5 = Very confident. </i> </p>","52","html-keyboard-response","25","132901","0.0-8.0-3.1","stim/test/noi005_act08_scr0_con0_tri023.mp4","005","08","0","0","023","2","A2PR7FI9TP8XLD","4"
"null","<div id=""left-fixation"" style=""font-size: 60px; color: white; position: absolute; left: 40%; top: 50%; transform: translate(-50%, -50%);"">+</div>","null","html-keyboard-response","26","133914","0.0-8.0-0.2","stim/test/noi020_act10_scr1_con0_tri055.mp4","020","10","1","0","055","","",""
"null","","null","video-keyboard-response","27","140094","0.0-8.0-1.2","stim/test/noi020_act10_scr1_con0_tri055.mp4","020","10","1","0","055","","",""
"4547.20000000298","<div style=""font-size:24px; color:white;"">Did you see a second person in the moving dots?</div><p style=""font-size:24px;""> <i> Press ""F"" for No or ""J"" for Yes. </i> </p>","70","html-keyboard-response","28","144642","0.0-8.0-2.2","stim/test/noi020_act10_scr1_con0_tri055.mp4","020","10","1","0","055","3","A2PR7FI9TP8XLD","no"
"1347.7000000029802","<div style=""font-size:24px; color:white;"">How confident are you? (from 1 to 5)</div><p style=""font-size:24px;""> <i> 1 = Not confident at all, 5 = Very confident. </i> </p>","53","html-keyboard-response","29","145990","0.0-8.0-3.2","stim/test/noi020_act10_scr1_con0_tri055.mp4","020","10","1","0","055","3","A2PR7FI9TP8XLD","5"
"null","<div id=""right-fixation"" style=""font-size: 60px; color: white; position: absolute; left: 60%; top: 50%; transform: translate(-50%, -50%);"">+</div>","null","html-keyboard-response","30","146992","0.0-8.0-0.3","stim/test/noi020_act03_scr0_con1_tri002.mp4","020","03","0","1","002","","",""
"null","","null","video-keyboard-response","31","152691","0.0-8.0-1.3","stim/test/noi020_act03_scr0_con1_tri002.mp4","020","03","0","1","002","","",""
"839.2000000029802","<div style=""font-size:24px; color:white;"">Did you see a second person in the moving dots?</div><p style=""font-size:24px;""> <i> Press ""F"" for No or ""J"" for Yes. </i> </p>","70","html-keyboard-response","32","153531","0.0-8.0-2.3","stim/test/noi020_act03_scr0_con1_tri002.mp4","020","03","0","1","002","4","A2PR7FI9TP8XLD","no"
"857","<div style=""font-size:24px; color:white;"">How confident are you? (from 1 to 5)</div><p style=""font-size:24px;""> <i> 1 = Not confident at all, 5 = Very confident. </i> </p>","53","html-keyboard-response","33","154389","0.0-8.0-3.3","stim/test/noi020_act03_scr0_con1_tri002.mp4","020","03","0","1","002","4","A2PR7FI9TP8XLD","5"
"null","<div id=""right-fixation"" style=""font-size: 60px; color: white; position: absolute; left: 60%; top: 50%; transform: translate(-50%, -50%);"">+</div>","null","html-keyboard-response","34","155394","0.0-8.0-0.4","stim/test/noi005_act01_scr1_con1_tri029.mp4","005","01","1","1","029","","",""
"null","","null","video-keyboard-response","35","160539","0.0-8.0-1.4","stim/test/noi005_act01_scr1_con1_tri029.mp4","005","01","1","1","029","","",""
"3632.8999999910593","<div style=""font-size:24px; color:white;"">Did you see a second person in the moving dots?</div><p style=""font-size:24px;""> <i> Press ""F"" for No or ""J"" for Yes. </i> </p>","70","html-keyboard-response","36","164173","0.0-8.0-2.4","stim/test/noi005_act01_scr1_con1_tri029.mp4","005","01","1","1","029","5","A2PR7FI9TP8XLD","no"
"929.1000000089407","<div style=""font-size:24px; color:white;"">How confident are you? (from 1 to 5)</div><p style=""font-size:24px;""> <i> 1 = Not confident at all, 5 = Very confident. </i> </p>","51","html-keyboard-response","37","165103","0.0-8.0-3.4","stim/test/noi005_act01_scr1_con1_tri029.mp4","005","01","1","1","029","5","A2PR7FI9TP8XLD","3"
"null","<div id=""right-fixation"" style=""font-size: 60px; color: white; position: absolute; left: 60%; top: 50%; transform: translate(-50%, -50%);"">+</div>","null","html-keyboard-response","38","166113","0.0-8.0-0.5","stim/test/noi010_act05_scr0_con1_tri004.mp4","010","05","0","1","004","","",""
"null","","null","video-keyboard-response","39","172303","0.0-8.0-1.5","stim/test/noi010_act05_scr0_con1_tri004.mp4","010","05","0","1","004","","",""
"864.4000000059605","<div style=""font-size:24px; color:white;"">Did you see a second person in the moving dots?</div><p style=""font-size:24px;""> <i> Press ""F"" for No or ""J"" for Yes. </i> </p>","70","html-keyboard-response","40","173168","0.0-8.0-2.5","stim/test/noi010_act05_scr0_con1_tri004.mp4","010","05","0","1","004","6","A2PR7FI9TP8XLD","no"
"1040.7999999970198","<div style=""font-size:24px; color:white;"">How confident are you? (from 1 to 5)</div><p style=""font-size:24px;""> <i> 1 = Not confident at all, 5 = Very confident. </i> </p>","50","html-keyboard-response","41","174209","0.0-8.0-3.5","stim/test/noi010_act05_scr0_con1_tri004.mp4","010","05","0","1","004","6","A2PR7FI9TP8XLD","2"
"null","<div id=""left-fixation"" style=""font-size: 60px; color: white; position: absolute; left: 40%; top: 50%; transform: translate(-50%, -50%);"">+</div>","null","html-keyboard-response","42","175216","0.0-8.0-0.6","stim/test/noi005_act08_scr1_con1_tri008.mp4","005","08","1","1","008","","",""
"null","","null","video-keyboard-response","43","180918","0.0-8.0-1.6","stim/test/noi005_act08_scr1_con1_tri008.mp4","005","08","1","1","008","","",""
"1432.5","<div style=""font-size:24px; color:white;"">Did you see a second person in the moving dots?</div><p style=""font-size:24px;""> <i> Press ""F"" for No or ""J"" for Yes. </i> </p>","70","html-keyboard-response","44","182351","0.0-8.0-2.6","stim/test/noi005_act08_scr1_con1_tri008.mp4","005","08","1","1","008","7","A2PR7FI9TP8XLD","no"
"508.29999999701977","<div style=""font-size:24px; color:white;"">How confident are you? (from 1 to 5)</div><p style=""font-size:24px;""> <i> 1 = Not confident at all, 5 = Very confident. </i> </p>","50","html-keyboard-response","45","182860","0.0-8.0-3.6","stim/test/noi005_act08_scr1_con1_tri008.mp4","005","08","1","1","008","7","A2PR7FI9TP8XLD","2"
"null","<div id=""right-fixation"" style=""font-size: 60px; color: white; position: absolute; left: 60%; top: 50%; transform: translate(-50%, -50%);"">+</div>","null","html-keyboard-response","46","183875","0.0-8.0-0.7","stim/test/noi020_act03_scr1_con0_tri050.mp4","020","03","1","0","050","","",""
"null","","null","video-keyboard-response","47","189583","0.0-8.0-1.7","stim/test/noi020_act03_scr1_con0_tri050.mp4","020","03","1","0","050","","",""
"854.4000000059605","<div style=""font-size:24px; color:white;"">Did you see a second person in the moving dots?</div><p style=""font-size:24px;""> <i> Press ""F"" for No or ""J"" for Yes. </i> </p>","70","html-keyboard-response","48","190438","0.0-8.0-2.7","stim/test/noi020_act03_scr1_con0_tri050.mp4","020","03","1","0","050","8","A2PR7FI9TP8XLD","no"
"528.7999999970198","<div style=""font-size:24px; color:white;"">How confident are you? (from 1 to 5)</div><p style=""font-size:24px;""> <i> 1 = Not confident at all, 5 = Very confident. </i> </p>","53","html-keyboard-response","49","190967","0.0-8.0-3.7","stim/test/noi020_act03_scr1_con0_tri050.mp4","020","03","1","0","050","8","A2PR7FI9TP8XLD","5"
"null","<div id=""right-fixation"" style=""font-size: 60px; color: white; position: absolute; left: 60%; top: 50%; transform: translate(-50%, -50%);"">+</div>","null","html-keyboard-response","50","191975","0.0-8.0-0.8","stim/test/noi010_act03_scr0_con0_tri011.mp4","010","03","0","0","011","","",""
"null","","null","video-keyboard-response","51","197681","0.0-8.0-1.8","stim/test/noi010_act03_scr0_con0_tri011.mp4","010","03","0","0","011","","",""
"3319.5","<div style=""font-size:24px; color:white;"">Did you see a second person in the moving dots?</div><p style=""font-size:24px;""> <i> Press ""F"" for No or ""J"" for Yes. </i> </p>","74","html-keyboard-response","52","201001","0.0-8.0-2.8","stim/test/noi010_act03_scr0_con0_tri011.mp4","010","03","0","0","011","9","A2PR7FI9TP8XLD","yes"
"1540.7999999970198","<div style=""font-size:24px; color:white;"">How confident are you? (from 1 to 5)</div><p style=""font-size:24px;""> <i> 1 = Not confident at all, 5 = Very confident. </i> </p>","50","html-keyboard-response","53","202542","0.0-8.0-3.8","stim/test/noi010_act03_scr0_con0_tri011.mp4","010","03","0","0","011","9","A2PR7FI9TP8XLD","2"
"null","<div id=""left-fixation"" style=""font-size: 60px; color: white; position: absolute; left: 40%; top: 50%; transform: translate(-50%, -50%);"">+</div>","null","html-keyboard-response","54","203557","0.0-8.0-0.9","stim/test/noi005_act06_scr0_con0_tri033.mp4","005","06","0","0","033","","",""
"null","","null","video-keyboard-response","55","208695","0.0-8.0-1.9","stim/test/noi005_act06_scr0_con0_tri033.mp4","005","06","0","0","033","","",""
"991.9000000059605","<div style=""font-size:24px; color:white;"">Did you see a second person in the moving dots?</div><p style=""font-size:24px;""> <i> Press ""F"" for No or ""J"" for Yes. </i> </p>","70","html-keyboard-response","56","209687","0.0-8.0-2.9","stim/test/noi005_act06_scr0_con0_tri033.mp4","005","06","0","0","033","10","A2PR7FI9TP8XLD","no"
"1435.0999999940395","<div style=""font-size:24px; color:white;"">How confident are you? (from 1 to 5)</div><p style=""font-size:24px;""> <i> 1 = Not confident at all, 5 = Very confident. </i> </p>","52","html-keyboard-response","57","211123","0.0-8.0-3.9","stim/test/noi005_act06_scr0_con0_tri033.mp4","005","06","0","0","033","10","A2PR7FI9TP8XLD","4"
"null","<div id=""left-fixation"" style=""font-size: 60px; color: white; position: absolute; left: 40%; top: 50%; transform: translate(-50%, -50%);"">+</div>","null","html-keyboard-response","58","212136","0.0-8.0-0.10","stim/test/noi010_act10_scr0_con1_tri005.mp4","010","10","0","1","005","","",""
"null","","null","video-keyboard-response","59","218309","0.0-8.0-1.10","stim/test/noi010_act10_scr0_con1_tri005.mp4","010","10","0","1","005","","",""
"2337.7999999970198","<div style=""font-size:24px; color:white;"">Did you see a second person in the moving dots?</div><p style=""font-size:24px;""> <i> Press ""F"" for No or ""J"" for Yes. </i> </p>","74","html-keyboard-response","60","220649","0.0-8.0-2.10","stim/test/noi010_act10_scr0_con1_tri005.mp4","010","10","0","1","005","11","A2PR7FI9TP8XLD","yes"
"1282.1000000089407","<div style=""font-size:24px; color:white;"">How confident are you? (from 1 to 5)</div><p style=""font-size:24px;""> <i> 1 = Not confident at all, 5 = Very confident. </i> </p>","50","html-keyboard-response","61","221931","0.0-8.0-3.10","stim/test/noi010_act10_scr0_con1_tri005.mp4","010","10","0","1","005","11","A2PR7FI9TP8XLD","2"
"null","<div id=""right-fixation"" style=""font-size: 60px; color: white; position: absolute; left: 60%; top: 50%; transform: translate(-50%, -50%);"">+</div>","null","html-keyboard-response","62","222947","0.0-8.0-0.11","stim/test/noi020_act05_scr0_con1_tri019.mp4","020","05","0","1","019","","",""
"null","","null","video-keyboard-response","63","229123","0.0-8.0-1.11","stim/test/noi020_act05_scr0_con1_tri019.mp4","020","05","0","1","019","","",""
"1072.5","<div style=""font-size:24px; color:white;"">Did you see a second person in the moving dots?</div><p style=""font-size:24px;""> <i> Press ""F"" for No or ""J"" for Yes. </i> </p>","74","html-keyboard-response","64","230196","0.0-8.0-2.11","stim/test/noi020_act05_scr0_con1_tri019.mp4","020","05","0","1","019","12","A2PR7FI9TP8XLD","yes"
"750.8999999910593","<div style=""font-size:24px; color:white;"">How confident are you? (from 1 to 5)</div><p style=""font-size:24px;""> <i> 1 = Not confident at all, 5 = Very confident. </i> </p>","51","html-keyboard-response","65","230948","0.0-8.0-3.11","stim/test/noi020_act05_scr0_con1_tri019.mp4","020","05","0","1","019","12","A2PR7FI9TP8XLD","3"
"null","<div id=""left-fixation"" style=""font-size: 60px; color: white; position: absolute; left: 40%; top: 50%; transform: translate(-50%, -50%);"">+</div>","null","html-keyboard-response","66","231958","0.0-8.0-0.12","stim/test/noi010_act06_scr0_con0_tri076.mp4","010","06","0","0","076","","",""
"null","","null","video-keyboard-response","67","237088","0.0-8.0-1.12","stim/test/noi010_act06_scr0_con0_tri076.mp4","010","06","0","0","076","","",""
"2003.2000000029802","<div style=""font-size:24px; color:white;"">Did you see a second person in the moving dots?</div><p style=""font-size:24px;""> <i> Press ""F"" for No or ""J"" for Yes. </i> </p>","70","html-keyboard-response","68","239092","0.0-8.0-2.12","stim/test/noi010_act06_scr0_con0_tri076.mp4","010","06","0","0","076","13","A2PR7FI9TP8XLD","no"
"861","<div style=""font-size:24px; color:white;"">How confident are you? (from 1 to 5)</div><p style=""font-size:24px;""> <i> 1 = Not confident at all, 5 = Very confident. </i> </p>","52","html-keyboard-response","69","239953","0.0-8.0-3.12","stim/test/noi010_act06_scr0_con0_tri076.mp4","010","06","0","0","076","13","A2PR7FI9TP8XLD","4"
"null","<div id=""left-fixation"" style=""font-size: 60px; color: white; position: absolute; left: 40%; top: 50%; transform: translate(-50%, -50%);"">+</div>","null","html-keyboard-response","70","240960","0.0-8.0-0.13","stim/test/noi010_act06_scr0_con1_tri031.mp4","010","06","0","1","031","","",""
"null","","null","video-keyboard-response","71","246103","0.0-8.0-1.13","stim/test/noi010_act06_scr0_con1_tri031.mp4","010","06","0","1","031","","",""
"1094.2999999970198","<div style=""font-size:24px; color:white;"">Did you see a second person in the moving dots?</div><p style=""font-size:24px;""> <i> Press ""F"" for No or ""J"" for Yes. </i> </p>","74","html-keyboard-response","72","247198","0.0-8.0-2.13","stim/test/noi010_act06_scr0_con1_tri031.mp4","010","06","0","1","031","14","A2PR7FI9TP8XLD","yes"
"838.7000000029802","<div style=""font-size:24px; color:white;"">How confident are you? (from 1 to 5)</div><p style=""font-size:24px;""> <i> 1 = Not confident at all, 5 = Very confident. </i> </p>","51","html-keyboard-response","73","248037","0.0-8.0-3.13","stim/test/noi010_act06_scr0_con1_tri031.mp4","010","06","0","1","031","14","A2PR7FI9TP8XLD","3"
"null","<div id=""right-fixation"" style=""font-size: 60px; color: white; position: absolute; left: 60%; top: 50%; transform: translate(-50%, -50%);"">+</div>","null","html-keyboard-response","74","249043","0.0-8.0-0.14","stim/test/noi010_act05_scr1_con0_tri008.mp4","010","05","1","0","008","","",""
"null","","null","video-keyboard-response","75","255218","0.0-8.0-1.14","stim/test/noi010_act05_scr1_con0_tri008.mp4","010","05","1","0","008","","",""
"2779","<div style=""font-size:24px; color:white;"">Did you see a second person in the moving dots?</div><p style=""font-size:24px;""> <i> Press ""F"" for No or ""J"" for Yes. </i> </p>","74","html-keyboard-response","76","257997","0.0-8.0-2.14","stim/test/noi010_act05_scr1_con0_tri008.mp4","010","05","1","0","008","15","A2PR7FI9TP8XLD","yes"
"1055.6000000089407","<div style=""font-size:24px; color:white;"">How confident are you? (from 1 to 5)</div><p style=""font-size:24px;""> <i> 1 = Not confident at all, 5 = Very confident. </i> </p>","50","html-keyboard-response","77","259053","0.0-8.0-3.14","stim/test/noi010_act05_scr1_con0_tri008.mp4","010","05","1","0","008","15","A2PR7FI9TP8XLD","2"
"null","<div id=""left-fixation"" style=""font-size: 60px; color: white; position: absolute; left: 40%; top: 50%; transform: translate(-50%, -50%);"">+</div>","null","html-keyboard-response","78","260059","0.0-8.0-0.15","stim/test/noi005_act06_scr1_con1_tri013.mp4","005","06","1","1","013","","",""
"null","","null","video-keyboard-response","79","265198","0.0-8.0-1.15","stim/test/noi005_act06_scr1_con1_tri013.mp4","005","06","1","1","013","","",""
"856.0999999940395","<div style=""font-size:24px; color:white;"">Did you see a second person in the moving dots?</div><p style=""font-size:24px;""> <i> Press ""F"" for No or ""J"" for Yes. </i> </p>","74","html-keyboard-response","80","266055","0.0-8.0-2.15","stim/test/noi005_act06_scr1_con1_tri013.mp4","005","06","1","1","013","16","A2PR7FI9TP8XLD","yes"
"1234","<div style=""font-size:24px; color:white;"">How confident are you? (from 1 to 5)</div><p style=""font-size:24px;""> <i> 1 = Not confident at all, 5 = Very confident. </i> </p>","49","html-keyboard-response","81","267289","0.0-8.0-3.15","stim/test/noi005_act06_scr1_con1_tri013.mp4","005","06","1","1","013","16","A2PR7FI9TP8XLD","1"
"null","<div id=""right-fixation"" style=""font-size: 60px; color: white; position: absolute; left: 60%; top: 50%; transform: translate(-50%, -50%);"">+</div>","null","html-keyboard-response","82","268301","0.0-8.0-0.16","stim/test/noi005_act03_scr1_con0_tri016.mp4","005","03","1","0","016","","",""
"null","","null","video-keyboard-response","83","274013","0.0-8.0-1.16","stim/test/noi005_act03_scr1_con0_tri016.mp4","005","03","1","0","016","","",""
"2214.2999999970198","<div style=""font-size:24px; color:white;"">Did you see a second person in the moving dots?</div><p style=""font-size:24px;""> <i> Press ""F"" for No or ""J"" for Yes. </i> </p>","70","html-keyboard-response","84","276227","0.0-8.0-2.16","stim/test/noi005_act03_scr1_con0_tri016.mp4","005","03","1","0","016","17","A2PR7FI9TP8XLD","no"
"597.7000000029802","<div style=""font-size:24px; color:white;"">How confident are you? (from 1 to 5)</div><p style=""font-size:24px;""> <i> 1 = Not confident at all, 5 = Very confident. </i> </p>","51","html-keyboard-response","85","276826","0.0-8.0-3.16","stim/test/noi005_act03_scr1_con0_tri016.mp4","005","03","1","0","016","17","A2PR7FI9TP8XLD","3"
"null","<div id=""right-fixation"" style=""font-size: 60px; color: white; position: absolute; left: 60%; top: 50%; transform: translate(-50%, -50%);"">+</div>","null","html-keyboard-response","86","277841","0.0-8.0-0.17","stim/test/noi010_act03_scr1_con0_tri022.mp4","010","03","1","0","022","","",""
"null","","null","video-keyboard-response","87","283544","0.0-8.0-1.17","stim/test/noi010_act03_scr1_con0_tri022.mp4","010","03","1","0","022","","",""
"1487.6000000089407","<div style=""font-size:24px; color:white;"">Did you see a second person in the moving dots?</div><p style=""font-size:24px;""> <i> Press ""F"" for No or ""J"" for Yes. </i> </p>","70","html-keyboard-response","88","285032","0.0-8.0-2.17","stim/test/noi010_act03_scr1_con0_tri022.mp4","010","03","1","0","022","18","A2PR7FI9TP8XLD","no"
"714.5","<div style=""font-size:24px; color:white;"">How confident are you? (from 1 to 5)</div><p style=""font-size:24px;""> <i> 1 = Not confident at all, 5 = Very confident. </i> </p>","51","html-keyboard-response","89","285747","0.0-8.0-3.17","stim/test/noi010_act03_scr1_con0_tri022.mp4","010","03","1","0","022","18","A2PR7FI9TP8XLD","3"
"null","<div id=""right-fixation"" style=""font-size: 60px; color: white; position: absolute; left: 60%; top: 50%; transform: translate(-50%, -50%);"">+</div>","null","html-keyboard-response","90","286750","0.0-8.0-0.18","stim/test/noi005_act01_scr1_con0_tri002.mp4","005","01","1","0","002","","",""
"null","","null","video-keyboard-response","91","291892","0.0-8.0-1.18","stim/test/noi005_act01_scr1_con0_tri002.mp4","005","01","1","0","002","","",""
"1532.5","<div style=""font-size:24px; color:white;"">Did you see a second person in the moving dots?</div><p style=""font-size:24px;""> <i> Press ""F"" for No or ""J"" for Yes. </i> </p>","70","html-keyboard-response","92","293425","0.0-8.0-2.18","stim/test/noi005_act01_scr1_con0_tri002.mp4","005","01","1","0","002","19","A2PR7FI9TP8XLD","no"
"631.5","<div style=""font-size:24px; color:white;"">How confident are you? (from 1 to 5)</div><p style=""font-size:24px;""> <i> 1 = Not confident at all, 5 = Very confident. </i> </p>","52","html-keyboard-response","93","294056","0.0-8.0-3.18","stim/test/noi005_act01_scr1_con0_tri002.mp4","005","01","1","0","002","19","A2PR7FI9TP8XLD","4"
"null","<div id=""right-fixation"" style=""font-size: 60px; color: white; position: absolute; left: 60%; top: 50%; transform: translate(-50%, -50%);"">+</div>","null","html-keyboard-response","94","295061","0.0-8.0-0.19","stim/test/noi020_act03_scr1_con1_tri024.mp4","020","03","1","1","024","","",""
"null","","null","video-keyboard-response","95","300773","0.0-8.0-1.19","stim/test/noi020_act03_scr1_con1_tri024.mp4","020","03","1","1","024","","",""
"1980.5","<div style=""font-size:24px; color:white;"">Did you see a second person in the moving dots?</div><p style=""font-size:24px;""> <i> Press ""F"" for No or ""J"" for Yes. </i> </p>","70","html-keyboard-response","96","302754","0.0-8.0-2.19","stim/test/noi020_act03_scr1_con1_tri024.mp4","020","03","1","1","024","20","A2PR7FI9TP8XLD","no"
"677.0999999940395","<div style=""font-size:24px; color:white;"">How confident are you? (from 1 to 5)</div><p style=""font-size:24px;""> <i> 1 = Not confident at all, 5 = Very confident. </i> </p>","53","html-keyboard-response","97","303432","0.0-8.0-3.19","stim/test/noi020_act03_scr1_con1_tri024.mp4","020","03","1","1","024","20","A2PR7FI9TP8XLD","5"
"null","<div id=""right-fixation"" style=""font-size: 60px; color: white; position: absolute; left: 60%; top: 50%; transform: translate(-50%, -50%);"">+</div>","null","html-keyboard-response","98","304442","0.0-8.0-0.20","stim/test/noi005_act01_scr0_con1_tri020.mp4","005","01","0","1","020","","",""
"null","","null","video-keyboard-response","99","309571","0.0-8.0-1.20","stim/test/noi005_act01_scr0_con1_tri020.mp4","005","01","0","1","020","","",""
"1060.1000000089407","<div style=""font-size:24px; color:white;"">Did you see a second person in the moving dots?</div><p style=""font-size:24px;""> <i> Press ""F"" for No or ""J"" for Yes. </i> </p>","70","html-keyboard-response","100","310632","0.0-8.0-2.20","stim/test/noi005_act01_scr0_con1_tri020.mp4","005","01","0","1","020","21","A2PR7FI9TP8XLD","no"
"540.9000000059605","<div style=""font-size:24px; color:white;"">How confident are you? (from 1 to 5)</div><p style=""font-size:24px;""> <i> 1 = Not confident at all, 5 = Very confident. </i> </p>","50","html-keyboard-response","101","311173","0.0-8.0-3.20","stim/test/noi005_act01_scr0_con1_tri020.mp4","005","01","0","1","020","21","A2PR7FI9TP8XLD","2"
"null","<div id=""right-fixation"" style=""font-size: 60px; color: white; position: absolute; left: 60%; top: 50%; transform: translate(-50%, -50%);"">+</div>","null","html-keyboard-response","102","312180","0.0-8.0-0.21","stim/test/noi005_act05_scr0_con1_tri005.mp4","005","05","0","1","005","","",""
"null","","null","video-keyboard-response","103","318353","0.0-8.0-1.21","stim/test/noi005_act05_scr0_con1_tri005.mp4","005","05","0","1","005","","",""
"2214.4000000059605","<div style=""font-size:24px; color:white;"">Did you see a second person in the moving dots?</div><p style=""font-size:24px;""> <i> Press ""F"" for No or ""J"" for Yes. </i> </p>","74","html-keyboard-response","104","320567","0.0-8.0-2.21","stim/test/noi005_act05_scr0_con1_tri005.mp4","005","05","0","1","005","22","A2PR7FI9TP8XLD","yes"
"934.2000000029802","<div style=""font-size:24px; color:white;"">How confident are you? (from 1 to 5)</div><p style=""font-size:24px;""> <i> 1 = Not confident at all, 5 = Very confident. </i> </p>","51","html-keyboard-response","105","321502","0.0-8.0-3.21","stim/test/noi005_act05_scr0_con1_tri005.mp4","005","05","0","1","005","22","A2PR7FI9TP8XLD","3"
"null","<div id=""right-fixation"" style=""font-size: 60px; color: white; position: absolute; left: 60%; top: 50%; transform: translate(-50%, -50%);"">+</div>","null","html-keyboard-response","106","322509","0.0-8.0-0.22","stim/test/noi020_act01_scr0_con0_tri009.mp4","020","01","0","0","009","","",""
"null","","null","video-keyboard-response","107","327650","0.0-8.0-1.22","stim/test/noi020_act01_scr0_con0_tri009.mp4","020","01","0","0","009","","",""
"1504.5999999940395","<div style=""font-size:24px; color:white;"">Did you see a second person in the moving dots?</div><p style=""font-size:24px;""> <i> Press ""F"" for No or ""J"" for Yes. </i> </p>","70","html-keyboard-response","108","329155","0.0-8.0-2.22","stim/test/noi020_act01_scr0_con0_tri009.mp4","020","01","0","0","009","23","A2PR7FI9TP8XLD","no"
"660.2999999970198","<div style=""font-size:24px; color:white;"">How confident are you? (from 1 to 5)</div><p style=""font-size:24px;""> <i> 1 = Not confident at all, 5 = Very confident. </i> </p>","52","html-keyboard-response","109","329816","0.0-8.0-3.22","stim/test/noi020_act01_scr0_con0_tri009.mp4","020","01","0","0","009","23","A2PR7FI9TP8XLD","4"
"null","<div id=""left-fixation"" style=""font-size: 60px; color: white; position: absolute; left: 40%; top: 50%; transform: translate(-50%, -50%);"">+</div>","null","html-keyboard-response","110","330819","0.0-8.0-0.23","stim/test/noi020_act10_scr0_con0_tri003.mp4","020","10","0","0","003","","",""
"null","","null","video-keyboard-response","111","336997","0.0-8.0-1.23","stim/test/noi020_act10_scr0_con0_tri003.mp4","020","10","0","0","003","","",""
"1177.1000000089407","<div style=""font-size:24px; color:white;"">Did you see a second person in the moving dots?</div><p style=""font-size:24px;""> <i> Press ""F"" for No or ""J"" for Yes. </i> </p>","74","html-keyboard-response","112","338175","0.0-8.0-2.23","stim/test/noi020_act10_scr0_con0_tri003.mp4","020","10","0","0","003","24","A2PR7FI9TP8XLD","yes"
"781.6000000089407","<div style=""font-size:24px; color:white;"">How confident are you? (from 1 to 5)</div><p style=""font-size:24px;""> <i> 1 = Not confident at all, 5 = Very confident. </i> </p>","50","html-keyboard-response","113","338957","0.0-8.0-3.23","stim/test/noi020_act10_scr0_con0_tri003.mp4","020","10","0","0","003","24","A2PR7FI9TP8XLD","2"
"null","<div id=""right-fixation"" style=""font-size: 60px; color: white; position: absolute; left: 60%; top: 50%; transform: translate(-50%, -50%);"">+</div>","null","html-keyboard-response","114","339967","0.0-8.0-0.24","stim/test/noi010_act05_scr1_con1_tri007.mp4","010","05","1","1","007","","",""
"null","","null","video-keyboard-response","115","346146","0.0-8.0-1.24","stim/test/noi010_act05_scr1_con1_tri007.mp4","010","05","1","1","007","","",""
"1929.1000000089407","<div style=""font-size:24px; color:white;"">Did you see a second person in the moving dots?</div><p style=""font-size:24px;""> <i> Press ""F"" for No or ""J"" for Yes. </i> </p>","70","html-keyboard-response","116","348075","0.0-8.0-2.24","stim/test/noi010_act05_scr1_con1_tri007.mp4","010","05","1","1","007","25","A2PR7FI9TP8XLD","no"
"942.4000000059605","<div style=""font-size:24px; color:white;"">How confident are you? (from 1 to 5)</div><p style=""font-size:24px;""> <i> 1 = Not confident at all, 5 = Very confident. </i> </p>","51","html-keyboard-response","117","349018","0.0-8.0-3.24","stim/test/noi010_act05_scr1_con1_tri007.mp4","010","05","1","1","007","25","A2PR7FI9TP8XLD","3"
"null","<div id=""right-fixation"" style=""font-size: 60px; color: white; position: absolute; left: 60%; top: 50%; transform: translate(-50%, -50%);"">+</div>","null","html-keyboard-response","118","350023","0.0-8.0-0.25","stim/test/noi005_act05_scr1_con0_tri025.mp4","005","05","1","0","025","","",""
"null","","null","video-keyboard-response","119","356210","0.0-8.0-1.25","stim/test/noi005_act05_scr1_con0_tri025.mp4","005","05","1","0","025","","",""
"2445.1000000089407","<div style=""font-size:24px; color:white;"">Did you see a second person in the moving dots?</div><p style=""font-size:24px;""> <i> Press ""F"" for No or ""J"" for Yes. </i> </p>","70","html-keyboard-response","120","358656","0.0-8.0-2.25","stim/test/noi005_act05_scr1_con0_tri025.mp4","005","05","1","0","025","26","A2PR7FI9TP8XLD","no"
"614.7000000029802","<div style=""font-size:24px; color:white;"">How confident are you? (from 1 to 5)</div><p style=""font-size:24px;""> <i> 1 = Not confident at all, 5 = Very confident. </i> </p>","50","html-keyboard-response","121","359271","0.0-8.0-3.25","stim/test/noi005_act05_scr1_con0_tri025.mp4","005","05","1","0","025","26","A2PR7FI9TP8XLD","2"
"null","<div id=""left-fixation"" style=""font-size: 60px; color: white; position: absolute; left: 40%; top: 50%; transform: translate(-50%, -50%);"">+</div>","null","html-keyboard-response","122","360278","0.0-8.0-0.26","stim/test/noi005_act10_scr1_con0_tri044.mp4","005","10","1","0","044","","",""
"null","","null","video-keyboard-response","123","366457","0.0-8.0-1.26","stim/test/noi005_act10_scr1_con0_tri044.mp4","005","10","1","0","044","","",""
"2319.7999999970198","<div style=""font-size:24px; color:white;"">Did you see a second person in the moving dots?</div><p style=""font-size:24px;""> <i> Press ""F"" for No or ""J"" for Yes. </i> </p>","74","html-keyboard-response","124","368777","0.0-8.0-2.26","stim/test/noi005_act10_scr1_con0_tri044.mp4","005","10","1","0","044","27","A2PR7FI9TP8XLD","yes"
"895.1000000089407","<div style=""font-size:24px; color:white;"">How confident are you? (from 1 to 5)</div><p style=""font-size:24px;""> <i> 1 = Not confident at all, 5 = Very confident. </i> </p>","50","html-keyboard-response","125","369672","0.0-8.0-3.26","stim/test/noi005_act10_scr1_con0_tri044.mp4","005","10","1","0","044","27","A2PR7FI9TP8XLD","2"
"null","<div id=""right-fixation"" style=""font-size: 60px; color: white; position: absolute; left: 60%; top: 50%; transform: translate(-50%, -50%);"">+</div>","null","html-keyboard-response","126","370686","0.0-8.0-0.27","stim/test/noi010_act03_scr1_con1_tri003.mp4","010","03","1","1","003","","",""
"null","","null","video-keyboard-response","127","376387","0.0-8.0-1.27","stim/test/noi010_act03_scr1_con1_tri003.mp4","010","03","1","1","003","","",""
"885.8999999910593","<div style=""font-size:24px; color:white;"">Did you see a second person in the moving dots?</div><p style=""font-size:24px;""> <i> Press ""F"" for No or ""J"" for Yes. </i> </p>","70","html-keyboard-response","128","377274","0.0-8.0-2.27","stim/test/noi010_act03_scr1_con1_tri003.mp4","010","03","1","1","003","28","A2PR7FI9TP8XLD","no"
"1253.7000000029802","<div style=""font-size:24px; color:white;"">How confident are you? (from 1 to 5)</div><p style=""font-size:24px;""> <i> 1 = Not confident at all, 5 = Very confident. </i> </p>","51","html-keyboard-response","129","378528","0.0-8.0-3.27","stim/test/noi010_act03_scr1_con1_tri003.mp4","010","03","1","1","003","28","A2PR7FI9TP8XLD","3"
"null","<div id=""left-fixation"" style=""font-size: 60px; color: white; position: absolute; left: 40%; top: 50%; transform: translate(-50%, -50%);"">+</div>","null","html-keyboard-response","130","379532","0.0-8.0-0.28","stim/test/noi005_act10_scr0_con0_tri003.mp4","005","10","0","0","003","","",""
"null","","null","video-keyboard-response","131","385719","0.0-8.0-1.28","stim/test/noi005_act10_scr0_con0_tri003.mp4","005","10","0","0","003","","",""
"1641.199999988079","<div style=""font-size:24px; color:white;"">Did you see a second person in the moving dots?</div><p style=""font-size:24px;""> <i> Press ""F"" for No or ""J"" for Yes. </i> </p>","74","html-keyboard-response","132","387360","0.0-8.0-2.28","stim/test/noi005_act10_scr0_con0_tri003.mp4","005","10","0","0","003","29","A2PR7FI9TP8XLD","yes"
"3033.7000000029802","<div style=""font-size:24px; color:white;"">How confident are you? (from 1 to 5)</div><p style=""font-size:24px;""> <i> 1 = Not confident at all, 5 = Very confident. </i> </p>","52","html-keyboard-response","133","390395","0.0-8.0-3.28","stim/test/noi005_act10_scr0_con0_tri003.mp4","005","10","0","0","003","29","A2PR7FI9TP8XLD","4"
"null","<div id=""left-fixation"" style=""font-size: 60px; color: white; position: absolute; left: 40%; top: 50%; transform: translate(-50%, -50%);"">+</div>","null","html-keyboard-response","134","391400","0.0-8.0-0.29","stim/test/noi005_act06_scr1_con0_tri038.mp4","005","06","1","0","038","","",""
"null","","null","video-keyboard-response","135","396532","0.0-8.0-1.29","stim/test/noi005_act06_scr1_con0_tri038.mp4","005","06","1","0","038","","",""
"2581.4000000059605","<div style=""font-size:24px; color:white;"">Did you see a second person in the moving dots?</div><p style=""font-size:24px;""> <i> Press ""F"" for No or ""J"" for Yes. </i> </p>","70","html-keyboard-response","136","399114","0.0-8.0-2.29","stim/test/noi005_act06_scr1_con0_tri038.mp4","005","06","1","0","038","30","A2PR7FI9TP8XLD","no"
"709.2999999970198","<div style=""font-size:24px; color:white;"">How confident are you? (from 1 to 5)</div><p style=""font-size:24px;""> <i> 1 = Not confident at all, 5 = Very confident. </i> </p>","51","html-keyboard-response","137","399824","0.0-8.0-3.29","stim/test/noi005_act06_scr1_con0_tri038.mp4","005","06","1","0","038","30","A2PR7FI9TP8XLD","3"
"null","<div id=""left-fixation"" style=""font-size: 60px; color: white; position: absolute; left: 40%; top: 50%; transform: translate(-50%, -50%);"">+</div>","null","html-keyboard-response","138","400839","0.0-8.0-0.30","stim/test/noi020_act06_scr1_con0_tri031.mp4","020","06","1","0","031","","",""
"null","","null","video-keyboard-response","139","405980","0.0-8.0-1.30","stim/test/noi020_act06_scr1_con0_tri031.mp4","020","06","1","0","031","","",""
"1167.2000000029802","<div style=""font-size:24px; color:white;"">Did you see a second person in the moving dots?</div><p style=""font-size:24px;""> <i> Press ""F"" for No or ""J"" for Yes. </i> </p>","70","html-keyboard-response","140","407148","0.0-8.0-2.30","stim/test/noi020_act06_scr1_con0_tri031.mp4","020","06","1","0","031","31","A2PR7FI9TP8XLD","no"
"707.6000000089407","<div style=""font-size:24px; color:white;"">How confident are you? (from 1 to 5)</div><p style=""font-size:24px;""> <i> 1 = Not confident at all, 5 = Very confident. </i> </p>","51","html-keyboard-response","141","407856","0.0-8.0-3.30","stim/test/noi020_act06_scr1_con0_tri031.mp4","020","06","1","0","031","31","A2PR7FI9TP8XLD","3"
"null","<div id=""left-fixation"" style=""font-size: 60px; color: white; position: absolute; left: 40%; top: 50%; transform: translate(-50%, -50%);"">+</div>","null","html-keyboard-response","142","408862","0.0-8.0-0.31","stim/test/noi020_act10_scr0_con1_tri023.mp4","020","10","0","1","023","","",""
"null","","null","video-keyboard-response","143","415045","0.0-8.0-1.31","stim/test/noi020_act10_scr0_con1_tri023.mp4","020","10","0","1","023","","",""
"1921.7999999970198","<div style=""font-size:24px; color:white;"">Did you see a second person in the moving dots?</div><p style=""font-size:24px;""> <i> Press ""F"" for No or ""J"" for Yes. </i> </p>","74","html-keyboard-response","144","416967","0.0-8.0-2.31","stim/test/noi020_act10_scr0_con1_tri023.mp4","020","10","0","1","023","32","A2PR7FI9TP8XLD","yes"
"1974.2999999970198","<div style=""font-size:24px; color:white;"">How confident are you? (from 1 to 5)</div><p style=""font-size:24px;""> <i> 1 = Not confident at all, 5 = Very confident. </i> </p>","51","html-keyboard-response","145","418942","0.0-8.0-3.31","stim/test/noi020_act10_scr0_con1_tri023.mp4","020","10","0","1","023","32","A2PR7FI9TP8XLD","3"
"null","<div id=""right-fixation"" style=""font-size: 60px; color: white; position: absolute; left: 60%; top: 50%; transform: translate(-50%, -50%);"">+</div>","null","html-keyboard-response","146","419948","0.0-8.0-0.32","stim/test/noi010_act01_scr0_con0_tri002.mp4","010","01","0","0","002","","",""
"null","","null","video-keyboard-response","147","425075","0.0-8.0-1.32","stim/test/noi010_act01_scr0_con0_tri002.mp4","010","01","0","0","002","","",""
"845.1999999880791","<div style=""font-size:24px; color:white;"">Did you see a second person in the moving dots?</div><p style=""font-size:24px;""> <i> Press ""F"" for No or ""J"" for Yes. </i> </p>","70","html-keyboard-response","148","425920","0.0-8.0-2.32","stim/test/noi010_act01_scr0_con0_tri002.mp4","010","01","0","0","002","33","A2PR7FI9TP8XLD","no"
"1469.2999999970198","<div style=""font-size:24px; color:white;"">How confident are you? (from 1 to 5)</div><p style=""font-size:24px;""> <i> 1 = Not confident at all, 5 = Very confident. </i> </p>","51","html-keyboard-response","149","427390","0.0-8.0-3.32","stim/test/noi010_act01_scr0_con0_tri002.mp4","010","01","0","0","002","33","A2PR7FI9TP8XLD","3"
"null","<div id=""left-fixation"" style=""font-size: 60px; color: white; position: absolute; left: 40%; top: 50%; transform: translate(-50%, -50%);"">+</div>","null","html-keyboard-response","150","428399","0.0-8.0-0.33","stim/test/noi010_act10_scr1_con1_tri010.mp4","010","10","1","1","010","","",""
"null","","null","video-keyboard-response","151","434573","0.0-8.0-1.33","stim/test/noi010_act10_scr1_con1_tri010.mp4","010","10","1","1","010","","",""
"1984.4000000059605","<div style=""font-size:24px; color:white;"">Did you see a second person in the moving dots?</div><p style=""font-size:24px;""> <i> Press ""F"" for No or ""J"" for Yes. </i> </p>","70","html-keyboard-response","152","436559","0.0-8.0-2.33","stim/test/noi010_act10_scr1_con1_tri010.mp4","010","10","1","1","010","34","A2PR7FI9TP8XLD","no"
"1184","<div style=""font-size:24px; color:white;"">How confident are you? (from 1 to 5)</div><p style=""font-size:24px;""> <i> 1 = Not confident at all, 5 = Very confident. </i> </p>","52","html-keyboard-response","153","437743","0.0-8.0-3.33","stim/test/noi010_act10_scr1_con1_tri010.mp4","010","10","1","1","010","34","A2PR7FI9TP8XLD","4"
"null","<div id=""left-fixation"" style=""font-size: 60px; color: white; position: absolute; left: 40%; top: 50%; transform: translate(-50%, -50%);"">+</div>","null","html-keyboard-response","154","438745","0.0-8.0-0.34","stim/test/noi010_act08_scr1_con1_tri030.mp4","010","08","1","1","030","","",""
"null","","null","video-keyboard-response","155","444454","0.0-8.0-1.34","stim/test/noi010_act08_scr1_con1_tri030.mp4","010","08","1","1","030","","",""
"1366.199999988079","<div style=""font-size:24px; color:white;"">Did you see a second person in the moving dots?</div><p style=""font-size:24px;""> <i> Press ""F"" for No or ""J"" for Yes. </i> </p>","70","html-keyboard-response","156","445821","0.0-8.0-2.34","stim/test/noi010_act08_scr1_con1_tri030.mp4","010","08","1","1","030","35","A2PR7FI9TP8XLD","no"
"852.9000000059605","<div style=""font-size:24px; color:white;"">How confident are you? (from 1 to 5)</div><p style=""font-size:24px;""> <i> 1 = Not confident at all, 5 = Very confident. </i> </p>","51","html-keyboard-response","157","446674","0.0-8.0-3.34","stim/test/noi010_act08_scr1_con1_tri030.mp4","010","08","1","1","030","35","A2PR7FI9TP8XLD","3"
"null","<div id=""left-fixation"" style=""font-size: 60px; color: white; position: absolute; left: 40%; top: 50%; transform: translate(-50%, -50%);"">+</div>","null","html-keyboard-response","158","447681","0.0-8.0-0.35","stim/test/noi010_act06_scr1_con1_tri014.mp4","010","06","1","1","014","","",""
"null","","null","video-keyboard-response","159","452819","0.0-8.0-1.35","stim/test/noi010_act06_scr1_con1_tri014.mp4","010","06","1","1","014","","",""
"4785.20000000298","<div style=""font-size:24px; color:white;"">Did you see a second person in the moving dots?</div><p style=""font-size:24px;""> <i> Press ""F"" for No or ""J"" for Yes. </i> </p>","70","html-keyboard-response","160","457605","0.0-8.0-2.35","stim/test/noi010_act06_scr1_con1_tri014.mp4","010","06","1","1","014","36","A2PR7FI9TP8XLD","no"
"2537.3999999910593","<div style=""font-size:24px; color:white;"">How confident are you? (from 1 to 5)</div><p style=""font-size:24px;""> <i> 1 = Not confident at all, 5 = Very confident. </i> </p>","52","html-keyboard-response","161","460143","0.0-8.0-3.35","stim/test/noi010_act06_scr1_con1_tri014.mp4","010","06","1","1","014","36","A2PR7FI9TP8XLD","4"
"null","<div id=""left-fixation"" style=""font-size: 60px; color: white; position: absolute; left: 40%; top: 50%; transform: translate(-50%, -50%);"">+</div>","null","html-keyboard-response","162","461153","0.0-8.0-0.36","stim/test/noi020_act06_scr0_con1_tri011.mp4","020","06","0","1","011","","",""
"null","","null","video-keyboard-response","163","466283","0.0-8.0-1.36","stim/test/noi020_act06_scr0_con1_tri011.mp4","020","06","0","1","011","","",""
"915.8999999910593","<div style=""font-size:24px; color:white;"">Did you see a second person in the moving dots?</div><p style=""font-size:24px;""> <i> Press ""F"" for No or ""J"" for Yes. </i> </p>","70","html-keyboard-response","164","467199","0.0-8.0-2.36","stim/test/noi020_act06_scr0_con1_tri011.mp4","020","06","0","1","011","37","A2PR7FI9TP8XLD","no"
"1181.6000000089407","<div style=""font-size:24px; color:white;"">How confident are you? (from 1 to 5)</div><p style=""font-size:24px;""> <i> 1 = Not confident at all, 5 = Very confident. </i> </p>","52","html-keyboard-response","165","468381","0.0-8.0-3.36","stim/test/noi020_act06_scr0_con1_tri011.mp4","020","06","0","1","011","37","A2PR7FI9TP8XLD","4"
"null","<div id=""left-fixation"" style=""font-size: 60px; color: white; position: absolute; left: 40%; top: 50%; transform: translate(-50%, -50%);"">+</div>","null","html-keyboard-response","166","469383","0.0-8.0-0.37","stim/test/noi020_act08_scr0_con1_tri005.mp4","020","08","0","1","005","","",""
"null","","null","video-keyboard-response","167","475080","0.0-8.0-1.37","stim/test/noi020_act08_scr0_con1_tri005.mp4","020","08","0","1","005","","",""
"1930.6000000089407","<div style=""font-size:24px; color:white;"">Did you see a second person in the moving dots?</div><p style=""font-size:24px;""> <i> Press ""F"" for No or ""J"" for Yes. </i> </p>","70","html-keyboard-response","168","477011","0.0-8.0-2.37","stim/test/noi020_act08_scr0_con1_tri005.mp4","020","08","0","1","005","38","A2PR7FI9TP8XLD","no"
"883.2000000029802","<div style=""font-size:24px; color:white;"">How confident are you? (from 1 to 5)</div><p style=""font-size:24px;""> <i> 1 = Not confident at all, 5 = Very confident. </i> </p>","53","html-keyboard-response","169","477895","0.0-8.0-3.37","stim/test/noi020_act08_scr0_con1_tri005.mp4","020","08","0","1","005","38","A2PR7FI9TP8XLD","5"
"null","<div id=""left-fixation"" style=""font-size: 60px; color: white; position: absolute; left: 40%; top: 50%; transform: translate(-50%, -50%);"">+</div>","null","html-keyboard-response","170","478908","0.0-8.0-0.38","stim/test/noi010_act10_scr1_con0_tri013.mp4","010","10","1","0","013","","",""
"null","","null","video-keyboard-response","171","485095","0.0-8.0-1.38","stim/test/noi010_act10_scr1_con0_tri013.mp4","010","10","1","0","013","","",""
"560.5","<div style=""font-size:24px; color:white;"">Did you see a second person in the moving dots?</div><p style=""font-size:24px;""> <i> Press ""F"" for No or ""J"" for Yes. </i> </p>","70","html-keyboard-response","172","485656","0.0-8.0-2.38","stim/test/noi010_act10_scr1_con0_tri013.mp4","010","10","1","0","013","39","A2PR7FI9TP8XLD","no"
"1117.6000000089407","<div style=""font-size:24px; color:white;"">How confident are you? (from 1 to 5)</div><p style=""font-size:24px;""> <i> 1 = Not confident at all, 5 = Very confident. </i> </p>","51","html-keyboard-response","173","486774","0.0-8.0-3.38","stim/test/noi010_act10_scr1_con0_tri013.mp4","010","10","1","0","013","39","A2PR7FI9TP8XLD","3"
"null","<div id=""right-fixation"" style=""font-size: 60px; color: white; position: absolute; left: 60%; top: 50%; transform: translate(-50%, -50%);"">+</div>","null","html-keyboard-response","174","487776","0.0-8.0-0.39","stim/test/noi010_act01_scr0_con1_tri001.mp4","010","01","0","1","001","","",""
"null","","null","video-keyboard-response","175","492910","0.0-8.0-1.39","stim/test/noi010_act01_scr0_con1_tri001.mp4","010","01","0","1","001","","",""
"1073.8999999910593","<div style=""font-size:24px; color:white;"">Did you see a second person in the moving dots?</div><p style=""font-size:24px;""> <i> Press ""F"" for No or ""J"" for Yes. </i> </p>","70","html-keyboard-response","176","493984","0.0-8.0-2.39","stim/test/noi010_act01_scr0_con1_tri001.mp4","010","01","0","1","001","40","A2PR7FI9TP8XLD","no"
"742.6000000089407","<div style=""font-size:24px; color:white;"">How confident are you? (from 1 to 5)</div><p style=""font-size:24px;""> <i> 1 = Not confident at all, 5 = Very confident. </i> </p>","52","html-keyboard-response","177","494726","0.0-8.0-3.39","stim/test/noi010_act01_scr0_con1_tri001.mp4","010","01","0","1","001","40","A2PR7FI9TP8XLD","4"
"null","<div id=""left-fixation"" style=""font-size: 60px; color: white; position: absolute; left: 40%; top: 50%; transform: translate(-50%, -50%);"">+</div>","null","html-keyboard-response","178","495739","0.0-8.0-0.40","stim/test/noi020_act08_scr0_con0_tri012.mp4","020","08","0","0","012","","",""
"null","","null","video-keyboard-response","179","501439","0.0-8.0-1.40","stim/test/noi020_act08_scr0_con0_tri012.mp4","020","08","0","0","012","","",""
"945.5999999940395","<div style=""font-size:24px; color:white;"">Did you see a second person in the moving dots?</div><p style=""font-size:24px;""> <i> Press ""F"" for No or ""J"" for Yes. </i> </p>","74","html-keyboard-response","180","502385","0.0-8.0-2.40","stim/test/noi020_act08_scr0_con0_tri012.mp4","020","08","0","0","012","41","A2PR7FI9TP8XLD","yes"
"1448.8999999910593","<div style=""font-size:24px; color:white;"">How confident are you? (from 1 to 5)</div><p style=""font-size:24px;""> <i> 1 = Not confident at all, 5 = Very confident. </i> </p>","51","html-keyboard-response","181","503834","0.0-8.0-3.40","stim/test/noi020_act08_scr0_con0_tri012.mp4","020","08","0","0","012","41","A2PR7FI9TP8XLD","3"
"null","<div id=""left-fixation"" style=""font-size: 60px; color: white; position: absolute; left: 40%; top: 50%; transform: translate(-50%, -50%);"">+</div>","null","html-keyboard-response","182","504837","0.0-8.0-0.41","stim/test/noi005_act10_scr0_con1_tri065.mp4","005","10","0","1","065","","",""
"null","","null","video-keyboard-response","183","511020","0.0-8.0-1.41","stim/test/noi005_act10_scr0_con1_tri065.mp4","005","10","0","1","065","","",""
"1938.2999999970198","<div style=""font-size:24px; color:white;"">Did you see a second person in the moving dots?</div><p style=""font-size:24px;""> <i> Press ""F"" for No or ""J"" for Yes. </i> </p>","74","html-keyboard-response","184","512959","0.0-8.0-2.41","stim/test/noi005_act10_scr0_con1_tri065.mp4","005","10","0","1","065","42","A2PR7FI9TP8XLD","yes"
"915","<div style=""font-size:24px; color:white;"">How confident are you? (from 1 to 5)</div><p style=""font-size:24px;""> <i> 1 = Not confident at all, 5 = Very confident. </i> </p>","52","html-keyboard-response","185","513875","0.0-8.0-3.41","stim/test/noi005_act10_scr0_con1_tri065.mp4","005","10","0","1","065","42","A2PR7FI9TP8XLD","4"
"null","<div id=""right-fixation"" style=""font-size: 60px; color: white; position: absolute; left: 60%; top: 50%; transform: translate(-50%, -50%);"">+</div>","null","html-keyboard-response","186","514880","0.0-8.0-0.42","stim/test/noi010_act01_scr1_con0_tri016.mp4","010","01","1","0","016","","",""
"null","","null","video-keyboard-response","187","520018","0.0-8.0-1.42","stim/test/noi010_act01_scr1_con0_tri016.mp4","010","01","1","0","016","","",""
"563.2000000029802","<div style=""font-size:24px; color:white;"">Did you see a second person in the moving dots?</div><p style=""font-size:24px;""> <i> Press ""F"" for No or ""J"" for Yes. </i> </p>","70","html-keyboard-response","188","520582","0.0-8.0-2.42","stim/test/noi010_act01_scr1_con0_tri016.mp4","010","01","1","0","016","43","A2PR7FI9TP8XLD","no"
"1252.199999988079","<div style=""font-size:24px; color:white;"">How confident are you? (from 1 to 5)</div><p style=""font-size:24px;""> <i> 1 = Not confident at all, 5 = Very confident. </i> </p>","52","html-keyboard-response","189","521834","0.0-8.0-3.42","stim/test/noi010_act01_scr1_con0_tri016.mp4","010","01","1","0","016","43","A2PR7FI9TP8XLD","4"
"null","<div id=""right-fixation"" style=""font-size: 60px; color: white; position: absolute; left: 60%; top: 50%; transform: translate(-50%, -50%);"">+</div>","null","html-keyboard-response","190","522840","0.0-8.0-0.43","stim/test/noi020_act05_scr0_con0_tri021.mp4","020","05","0","0","021","","",""
"null","","null","video-keyboard-response","191","529032","0.0-8.0-1.43","stim/test/noi020_act05_scr0_con0_tri021.mp4","020","05","0","0","021","","",""
"822.6000000089407","<div style=""font-size:24px; color:white;"">Did you see a second person in the moving dots?</div><p style=""font-size:24px;""> <i> Press ""F"" for No or ""J"" for Yes. </i> </p>","70","html-keyboard-response","192","529856","0.0-8.0-2.43","stim/test/noi020_act05_scr0_con0_tri021.mp4","020","05","0","0","021","44","A2PR7FI9TP8XLD","no"
"894.8000000119209","<div style=""font-size:24px; color:white;"">How confident are you? (from 1 to 5)</div><p style=""font-size:24px;""> <i> 1 = Not confident at all, 5 = Very confident. </i> </p>","51","html-keyboard-response","193","530751","0.0-8.0-3.43","stim/test/noi020_act05_scr0_con0_tri021.mp4","020","05","0","0","021","44","A2PR7FI9TP8XLD","3"
"null","<div id=""right-fixation"" style=""font-size: 60px; color: white; position: absolute; left: 60%; top: 50%; transform: translate(-50%, -50%);"">+</div>","null","html-keyboard-response","194","531755","0.0-8.0-0.44","stim/test/noi005_act03_scr0_con1_tri024.mp4","005","03","0","1","024","","",""
"null","","null","video-keyboard-response","195","537464","0.0-8.0-1.44","stim/test/noi005_act03_scr0_con1_tri024.mp4","005","03","0","1","024","","",""
"1287.5999999940395","<div style=""font-size:24px; color:white;"">Did you see a second person in the moving dots?</div><p style=""font-size:24px;""> <i> Press ""F"" for No or ""J"" for Yes. </i> </p>","74","html-keyboard-response","196","538752","0.0-8.0-2.44","stim/test/noi005_act03_scr0_con1_tri024.mp4","005","03","0","1","024","45","A2PR7FI9TP8XLD","yes"
"3651","<div style=""font-size:24px; color:white;"">How confident are you? (from 1 to 5)</div><p style=""font-size:24px;""> <i> 1 = Not confident at all, 5 = Very confident. </i> </p>","52","html-keyboard-response","197","542403","0.0-8.0-3.44","stim/test/noi005_act03_scr0_con1_tri024.mp4","005","03","0","1","024","45","A2PR7FI9TP8XLD","4"
"null","<div id=""right-fixation"" style=""font-size: 60px; color: white; position: absolute; left: 60%; top: 50%; transform: translate(-50%, -50%);"">+</div>","null","html-keyboard-response","198","543405","0.0-8.0-0.45","stim/test/noi020_act05_scr1_con1_tri015.mp4","020","05","1","1","015","","",""
"null","","null","video-keyboard-response","199","549594","0.0-8.0-1.45","stim/test/noi020_act05_scr1_con1_tri015.mp4","020","05","1","1","015","","",""
"5499.20000000298","<div style=""font-size:24px; color:white;"">Did you see a second person in the moving dots?</div><p style=""font-size:24px;""> <i> Press ""F"" for No or ""J"" for Yes. </i> </p>","70","html-keyboard-response","200","555094","0.0-8.0-2.45","stim/test/noi020_act05_scr1_con1_tri015.mp4","020","05","1","1","015","46","A2PR7FI9TP8XLD","no"
"6349.899999991059","<div style=""font-size:24px; color:white;"">How confident are you? (from 1 to 5)</div><p style=""font-size:24px;""> <i> 1 = Not confident at all, 5 = Very confident. </i> </p>","51","html-keyboard-response","201","561445","0.0-8.0-3.45","stim/test/noi020_act05_scr1_con1_tri015.mp4","020","05","1","1","015","46","A2PR7FI9TP8XLD","3"
"null","<div id=""right-fixation"" style=""font-size: 60px; color: white; position: absolute; left: 60%; top: 50%; transform: translate(-50%, -50%);"">+</div>","null","html-keyboard-response","202","562453","0.0-8.0-0.46","stim/test/noi010_act05_scr0_con0_tri006.mp4","010","05","0","0","006","","",""
"null","","null","video-keyboard-response","203","568640","0.0-8.0-1.46","stim/test/noi010_act05_scr0_con0_tri006.mp4","010","05","0","0","006","","",""
"1285.1000000089407","<div style=""font-size:24px; color:white;"">Did you see a second person in the moving dots?</div><p style=""font-size:24px;""> <i> Press ""F"" for No or ""J"" for Yes. </i> </p>","74","html-keyboard-response","204","569925","0.0-8.0-2.46","stim/test/noi010_act05_scr0_con0_tri006.mp4","010","05","0","0","006","47","A2PR7FI9TP8XLD","yes"
"4078.7000000029802","<div style=""font-size:24px; color:white;"">How confident are you? (from 1 to 5)</div><p style=""font-size:24px;""> <i> 1 = Not confident at all, 5 = Very confident. </i> </p>","52","html-keyboard-response","205","574004","0.0-8.0-3.46","stim/test/noi010_act05_scr0_con0_tri006.mp4","010","05","0","0","006","47","A2PR7FI9TP8XLD","4"
"null","<div id=""left-fixation"" style=""font-size: 60px; color: white; position: absolute; left: 40%; top: 50%; transform: translate(-50%, -50%);"">+</div>","null","html-keyboard-response","206","575014","0.0-8.0-0.47","stim/test/noi010_act06_scr1_con0_tri034.mp4","010","06","1","0","034","","",""
"null","","null","video-keyboard-response","207","580153","0.0-8.0-1.47","stim/test/noi010_act06_scr1_con0_tri034.mp4","010","06","1","0","034","","",""
"1460.5","<div style=""font-size:24px; color:white;"">Did you see a second person in the moving dots?</div><p style=""font-size:24px;""> <i> Press ""F"" for No or ""J"" for Yes. </i> </p>","70","html-keyboard-response","208","581614","0.0-8.0-2.47","stim/test/noi010_act06_scr1_con0_tri034.mp4","010","06","1","0","034","48","A2PR7FI9TP8XLD","no"
"1916","<div style=""font-size:24px; color:white;"">How confident are you? (from 1 to 5)</div><p style=""font-size:24px;""> <i> 1 = Not confident at all, 5 = Very confident. </i> </p>","51","html-keyboard-response","209","583531","0.0-8.0-3.47","stim/test/noi010_act06_scr1_con0_tri034.mp4","010","06","1","0","034","48","A2PR7FI9TP8XLD","3"
"null","<div id=""left-fixation"" style=""font-size: 60px; color: white; position: absolute; left: 40%; top: 50%; transform: translate(-50%, -50%);"">+</div>","null","html-keyboard-response","210","584534","0.0-8.0-0.48","stim/test/noi010_act08_scr0_con1_tri037.mp4","010","08","0","1","037","","",""
"null","","null","video-keyboard-response","211","590234","0.0-8.0-1.48","stim/test/noi010_act08_scr0_con1_tri037.mp4","010","08","0","1","037","","",""
"1269.4000000059605","<div style=""font-size:24px; color:white;"">Did you see a second person in the moving dots?</div><p style=""font-size:24px;""> <i> Press ""F"" for No or ""J"" for Yes. </i> </p>","74","html-keyboard-response","212","591504","0.0-8.0-2.48","stim/test/noi010_act08_scr0_con1_tri037.mp4","010","08","0","1","037","49","A2PR7FI9TP8XLD","yes"
"898.2999999970198","<div style=""font-size:24px; color:white;"">How confident are you? (from 1 to 5)</div><p style=""font-size:24px;""> <i> 1 = Not confident at all, 5 = Very confident. </i> </p>","52","html-keyboard-response","213","592402","0.0-8.0-3.48","stim/test/noi010_act08_scr0_con1_tri037.mp4","010","08","0","1","037","49","A2PR7FI9TP8XLD","4"
"null","<div id=""right-fixation"" style=""font-size: 60px; color: white; position: absolute; left: 60%; top: 50%; transform: translate(-50%, -50%);"">+</div>","null","html-keyboard-response","214","593410","0.0-8.0-0.49","stim/test/noi010_act01_scr1_con1_tri012.mp4","010","01","1","1","012","","",""
"null","","null","video-keyboard-response","215","598549","0.0-8.0-1.49","stim/test/noi010_act01_scr1_con1_tri012.mp4","010","01","1","1","012","","",""
"2118.7999999970198","<div style=""font-size:24px; color:white;"">Did you see a second person in the moving dots?</div><p style=""font-size:24px;""> <i> Press ""F"" for No or ""J"" for Yes. </i> </p>","70","html-keyboard-response","216","600668","0.0-8.0-2.49","stim/test/noi010_act01_scr1_con1_tri012.mp4","010","01","1","1","012","50","A2PR7FI9TP8XLD","no"
"1049.5","<div style=""font-size:24px; color:white;"">How confident are you? (from 1 to 5)</div><p style=""font-size:24px;""> <i> 1 = Not confident at all, 5 = Very confident. </i> </p>","52","html-keyboard-response","217","601718","0.0-8.0-3.49","stim/test/noi010_act01_scr1_con1_tri012.mp4","010","01","1","1","012","50","A2PR7FI9TP8XLD","4"
"null","<div id=""right-fixation"" style=""font-size: 60px; color: white; position: absolute; left: 60%; top: 50%; transform: translate(-50%, -50%);"">+</div>","null","html-keyboard-response","218","602724","0.0-8.0-0.50","stim/test/noi020_act01_scr1_con0_tri039.mp4","020","01","1","0","039","","",""
"null","","null","video-keyboard-response","219","607863","0.0-8.0-1.50","stim/test/noi020_act01_scr1_con0_tri039.mp4","020","01","1","0","039","","",""
"682.4000000059605","<div style=""font-size:24px; color:white;"">Did you see a second person in the moving dots?</div><p style=""font-size:24px;""> <i> Press ""F"" for No or ""J"" for Yes. </i> </p>","70","html-keyboard-response","220","608546","0.0-8.0-2.50","stim/test/noi020_act01_scr1_con0_tri039.mp4","020","01","1","0","039","51","A2PR7FI9TP8XLD","no"
"640.8000000119209","<div style=""font-size:24px; color:white;"">How confident are you? (from 1 to 5)</div><p style=""font-size:24px;""> <i> 1 = Not confident at all, 5 = Very confident. </i> </p>","52","html-keyboard-response","221","609188","0.0-8.0-3.50","stim/test/noi020_act01_scr1_con0_tri039.mp4","020","01","1","0","039","51","A2PR7FI9TP8XLD","4"
"null","<div id=""right-fixation"" style=""font-size: 60px; color: white; position: absolute; left: 60%; top: 50%; transform: translate(-50%, -50%);"">+</div>","null","html-keyboard-response","222","610203","0.0-8.0-0.51","stim/test/noi005_act03_scr1_con1_tri027.mp4","005","03","1","1","027","","",""
"null","","null","video-keyboard-response","223","615913","0.0-8.0-1.51","stim/test/noi005_act03_scr1_con1_tri027.mp4","005","03","1","1","027","","",""
"1290.2000000029802","<div style=""font-size:24px; color:white;"">Did you see a second person in the moving dots?</div><p style=""font-size:24px;""> <i> Press ""F"" for No or ""J"" for Yes. </i> </p>","70","html-keyboard-response","224","617203","0.0-8.0-2.51","stim/test/noi005_act03_scr1_con1_tri027.mp4","005","03","1","1","027","52","A2PR7FI9TP8XLD","no"
"812.2000000029802","<div style=""font-size:24px; color:white;"">How confident are you? (from 1 to 5)</div><p style=""font-size:24px;""> <i> 1 = Not confident at all, 5 = Very confident. </i> </p>","51","html-keyboard-response","225","618016","0.0-8.0-3.51","stim/test/noi005_act03_scr1_con1_tri027.mp4","005","03","1","1","027","52","A2PR7FI9TP8XLD","3"
"null","<div id=""left-fixation"" style=""font-size: 60px; color: white; position: absolute; left: 40%; top: 50%; transform: translate(-50%, -50%);"">+</div>","null","html-keyboard-response","226","619021","0.0-8.0-0.52","stim/test/noi005_act10_scr1_con1_tri012.mp4","005","10","1","1","012","","",""
"null","","null","video-keyboard-response","227","625211","0.0-8.0-1.52","stim/test/noi005_act10_scr1_con1_tri012.mp4","005","10","1","1","012","","",""
"1216.4000000059605","<div style=""font-size:24px; color:white;"">Did you see a second person in the moving dots?</div><p style=""font-size:24px;""> <i> Press ""F"" for No or ""J"" for Yes. </i> </p>","70","html-keyboard-response","228","626428","0.0-8.0-2.52","stim/test/noi005_act10_scr1_con1_tri012.mp4","005","10","1","1","012","53","A2PR7FI9TP8XLD","no"
"823.7000000029802","<div style=""font-size:24px; color:white;"">How confident are you? (from 1 to 5)</div><p style=""font-size:24px;""> <i> 1 = Not confident at all, 5 = Very confident. </i> </p>","52","html-keyboard-response","229","627252","0.0-8.0-3.52","stim/test/noi005_act10_scr1_con1_tri012.mp4","005","10","1","1","012","53","A2PR7FI9TP8XLD","4"
"null","<div id=""right-fixation"" style=""font-size: 60px; color: white; position: absolute; left: 60%; top: 50%; transform: translate(-50%, -50%);"">+</div>","null","html-keyboard-response","230","628259","0.0-8.0-0.53","stim/test/noi020_act01_scr1_con1_tri029.mp4","020","01","1","1","029","","",""
"null","","null","video-keyboard-response","231","633392","0.0-8.0-1.53","stim/test/noi020_act01_scr1_con1_tri029.mp4","020","01","1","1","029","","",""
"1255.8999999910593","<div style=""font-size:24px; color:white;"">Did you see a second person in the moving dots?</div><p style=""font-size:24px;""> <i> Press ""F"" for No or ""J"" for Yes. </i> </p>","70","html-keyboard-response","232","634648","0.0-8.0-2.53","stim/test/noi020_act01_scr1_con1_tri029.mp4","020","01","1","1","029","54","A2PR7FI9TP8XLD","no"
"940.5999999940395","<div style=""font-size:24px; color:white;"">How confident are you? (from 1 to 5)</div><p style=""font-size:24px;""> <i> 1 = Not confident at all, 5 = Very confident. </i> </p>","53","html-keyboard-response","233","635589","0.0-8.0-3.53","stim/test/noi020_act01_scr1_con1_tri029.mp4","020","01","1","1","029","54","A2PR7FI9TP8XLD","5"
"null","<div id=""right-fixation"" style=""font-size: 60px; color: white; position: absolute; left: 60%; top: 50%; transform: translate(-50%, -50%);"">+</div>","null","html-keyboard-response","234","636594","0.0-8.0-0.54","stim/test/noi005_act05_scr1_con1_tri009.mp4","005","05","1","1","009","","",""
"null","","null","video-keyboard-response","235","642773","0.0-8.0-1.54","stim/test/noi005_act05_scr1_con1_tri009.mp4","005","05","1","1","009","","",""
"409","<div style=""font-size:24px; color:white;"">Did you see a second person in the moving dots?</div><p style=""font-size:24px;""> <i> Press ""F"" for No or ""J"" for Yes. </i> </p>","70","html-keyboard-response","236","643182","0.0-8.0-2.54","stim/test/noi005_act05_scr1_con1_tri009.mp4","005","05","1","1","009","55","A2PR7FI9TP8XLD","no"
"1162.2000000029802","<div style=""font-size:24px; color:white;"">How confident are you? (from 1 to 5)</div><p style=""font-size:24px;""> <i> 1 = Not confident at all, 5 = Very confident. </i> </p>","53","html-keyboard-response","237","644345","0.0-8.0-3.54","stim/test/noi005_act05_scr1_con1_tri009.mp4","005","05","1","1","009","55","A2PR7FI9TP8XLD","5"
"null","<div id=""left-fixation"" style=""font-size: 60px; color: white; position: absolute; left: 40%; top: 50%; transform: translate(-50%, -50%);"">+</div>","null","html-keyboard-response","238","645355","0.0-8.0-0.55","stim/test/noi020_act06_scr1_con1_tri082.mp4","020","06","1","1","082","","",""
"null","","null","video-keyboard-response","239","650488","0.0-8.0-1.55","stim/test/noi020_act06_scr1_con1_tri082.mp4","020","06","1","1","082","","",""
"1138.2999999970198","<div style=""font-size:24px; color:white;"">Did you see a second person in the moving dots?</div><p style=""font-size:24px;""> <i> Press ""F"" for No or ""J"" for Yes. </i> </p>","70","html-keyboard-response","240","651627","0.0-8.0-2.55","stim/test/noi020_act06_scr1_con1_tri082.mp4","020","06","1","1","082","56","A2PR7FI9TP8XLD","no"
"807.8000000119209","<div style=""font-size:24px; color:white;"">How confident are you? (from 1 to 5)</div><p style=""font-size:24px;""> <i> 1 = Not confident at all, 5 = Very confident. </i> </p>","53","html-keyboard-response","241","652435","0.0-8.0-3.55","stim/test/noi020_act06_scr1_con1_tri082.mp4","020","06","1","1","082","56","A2PR7FI9TP8XLD","5"
"null","<div id=""right-fixation"" style=""font-size: 60px; color: white; position: absolute; left: 60%; top: 50%; transform: translate(-50%, -50%);"">+</div>","null","html-keyboard-response","242","653440","0.0-8.0-0.56","stim/test/noi020_act01_scr0_con1_tri008.mp4","020","01","0","1","008","","",""
"null","","null","video-keyboard-response","243","658569","0.0-8.0-1.56","stim/test/noi020_act01_scr0_con1_tri008.mp4","020","01","0","1","008","","",""
"631.6000000089407","<div style=""font-size:24px; color:white;"">Did you see a second person in the moving dots?</div><p style=""font-size:24px;""> <i> Press ""F"" for No or ""J"" for Yes. </i> </p>","70","html-keyboard-response","244","659201","0.0-8.0-2.56","stim/test/noi020_act01_scr0_con1_tri008.mp4","020","01","0","1","008","57","A2PR7FI9TP8XLD","no"
"279.79999999701977","<div style=""font-size:24px; color:white;"">How confident are you? (from 1 to 5)</div><p style=""font-size:24px;""> <i> 1 = Not confident at all, 5 = Very confident. </i> </p>","53","html-keyboard-response","245","659481","0.0-8.0-3.56","stim/test/noi020_act01_scr0_con1_tri008.mp4","020","01","0","1","008","57","A2PR7FI9TP8XLD","5"
"null","<div id=""left-fixation"" style=""font-size: 60px; color: white; position: absolute; left: 40%; top: 50%; transform: translate(-50%, -50%);"">+</div>","null","html-keyboard-response","246","660497","0.0-8.0-0.57","stim/test/noi005_act08_scr1_con0_tri015.mp4","005","08","1","0","015","","",""
"null","","null","video-keyboard-response","247","666200","0.0-8.0-1.57","stim/test/noi005_act08_scr1_con0_tri015.mp4","005","08","1","0","015","","",""
"2063.7000000029802","<div style=""font-size:24px; color:white;"">Did you see a second person in the moving dots?</div><p style=""font-size:24px;""> <i> Press ""F"" for No or ""J"" for Yes. </i> </p>","70","html-keyboard-response","248","668265","0.0-8.0-2.57","stim/test/noi005_act08_scr1_con0_tri015.mp4","005","08","1","0","015","58","A2PR7FI9TP8XLD","no"
"912.7000000029802","<div style=""font-size:24px; color:white;"">How confident are you? (from 1 to 5)</div><p style=""font-size:24px;""> <i> 1 = Not confident at all, 5 = Very confident. </i> </p>","51","html-keyboard-response","249","669178","0.0-8.0-3.57","stim/test/noi005_act08_scr1_con0_tri015.mp4","005","08","1","0","015","58","A2PR7FI9TP8XLD","3"
"null","<div id=""right-fixation"" style=""font-size: 60px; color: white; position: absolute; left: 60%; top: 50%; transform: translate(-50%, -50%);"">+</div>","null","html-keyboard-response","250","670182","0.0-8.0-0.58","stim/test/noi010_act03_scr0_con1_tri059.mp4","010","03","0","1","059","","",""
"null","","null","video-keyboard-response","251","675881","0.0-8.0-1.58","stim/test/noi010_act03_scr0_con1_tri059.mp4","010","03","0","1","059","","",""
"1979.5","<div style=""font-size:24px; color:white;"">Did you see a second person in the moving dots?</div><p style=""font-size:24px;""> <i> Press ""F"" for No or ""J"" for Yes. </i> </p>","70","html-keyboard-response","252","677860","0.0-8.0-2.58","stim/test/noi010_act03_scr0_con1_tri059.mp4","010","03","0","1","059","59","A2PR7FI9TP8XLD","no"
"1170.7000000029802","<div style=""font-size:24px; color:white;"">How confident are you? (from 1 to 5)</div><p style=""font-size:24px;""> <i> 1 = Not confident at all, 5 = Very confident. </i> </p>","51","html-keyboard-response","253","679031","0.0-8.0-3.58","stim/test/noi010_act03_scr0_con1_tri059.mp4","010","03","0","1","059","59","A2PR7FI9TP8XLD","3"
"null","<div id=""left-fixation"" style=""font-size: 60px; color: white; position: absolute; left: 40%; top: 50%; transform: translate(-50%, -50%);"">+</div>","null","html-keyboard-response","254","680045","0.0-8.0-0.59","stim/test/noi010_act08_scr1_con0_tri009.mp4","010","08","1","0","009","","",""
"null","","null","video-keyboard-response","255","685744","0.0-8.0-1.59","stim/test/noi010_act08_scr1_con0_tri009.mp4","010","08","1","0","009","","",""
"1024.699999988079","<div style=""font-size:24px; color:white;"">Did you see a second person in the moving dots?</div><p style=""font-size:24px;""> <i> Press ""F"" for No or ""J"" for Yes. </i> </p>","70","html-keyboard-response","256","686769","0.0-8.0-2.59","stim/test/noi010_act08_scr1_con0_tri009.mp4","010","08","1","0","009","60","A2PR7FI9TP8XLD","no"
"1198.7000000029802","<div style=""font-size:24px; color:white;"">How confident are you? (from 1 to 5)</div><p style=""font-size:24px;""> <i> 1 = Not confident at all, 5 = Very confident. </i> </p>","50","html-keyboard-response","257","687968","0.0-8.0-3.59","stim/test/noi010_act08_scr1_con0_tri009.mp4","010","08","1","0","009","60","A2PR7FI9TP8XLD","2"
"null","<div id=""left-fixation"" style=""font-size: 60px; color: white; position: absolute; left: 40%; top: 50%; transform: translate(-50%, -50%);"">+</div>","null","html-keyboard-response","258","688980","0.0-8.0-0.60","stim/test/noi005_act06_scr0_con1_tri040.mp4","005","06","0","1","040","","",""
"null","","null","video-keyboard-response","259","694109","0.0-8.0-1.60","stim/test/noi005_act06_scr0_con1_tri040.mp4","005","06","0","1","040","","",""
"2413.800000011921","<div style=""font-size:24px; color:white;"">Did you see a second person in the moving dots?</div><p style=""font-size:24px;""> <i> Press ""F"" for No or ""J"" for Yes. </i> </p>","70","html-keyboard-response","260","696523","0.0-8.0-2.60","stim/test/noi005_act06_scr0_con1_tri040.mp4","005","06","0","1","040","61","A2PR7FI9TP8XLD","no"
"1567.699999988079","<div style=""font-size:24px; color:white;"">How confident are you? (from 1 to 5)</div><p style=""font-size:24px;""> <i> 1 = Not confident at all, 5 = Very confident. </i> </p>","50","html-keyboard-response","261","698091","0.0-8.0-3.60","stim/test/noi005_act06_scr0_con1_tri040.mp4","005","06","0","1","040","61","A2PR7FI9TP8XLD","2"
"null","<div id=""left-fixation"" style=""font-size: 60px; color: white; position: absolute; left: 40%; top: 50%; transform: translate(-50%, -50%);"">+</div>","null","html-keyboard-response","262","699103","0.0-8.0-0.61","stim/test/noi005_act08_scr0_con1_tri010.mp4","005","08","0","1","010","","",""
"null","","null","video-keyboard-response","263","704807","0.0-8.0-1.61","stim/test/noi005_act08_scr0_con1_tri010.mp4","005","08","0","1","010","","",""
"757.9000000059605","<div style=""font-size:24px; color:white;"">Did you see a second person in the moving dots?</div><p style=""font-size:24px;""> <i> Press ""F"" for No or ""J"" for Yes. </i> </p>","74","html-keyboard-response","264","705566","0.0-8.0-2.61","stim/test/noi005_act08_scr0_con1_tri010.mp4","005","08","0","1","010","62","A2PR7FI9TP8XLD","yes"
"1694.5","<div style=""font-size:24px; color:white;"">How confident are you? (from 1 to 5)</div><p style=""font-size:24px;""> <i> 1 = Not confident at all, 5 = Very confident. </i> </p>","51","html-keyboard-response","265","707261","0.0-8.0-3.61","stim/test/noi005_act08_scr0_con1_tri010.mp4","005","08","0","1","010","62","A2PR7FI9TP8XLD","3"
"null","<div id=""right-fixation"" style=""font-size: 60px; color: white; position: absolute; left: 60%; top: 50%; transform: translate(-50%, -50%);"">+</div>","null","html-keyboard-response","266","708267","0.0-8.0-0.62","stim/test/noi020_act05_scr1_con0_tri036.mp4","020","05","1","0","036","","",""
"null","","null","video-keyboard-response","267","714453","0.0-8.0-1.62","stim/test/noi020_act05_scr1_con0_tri036.mp4","020","05","1","0","036","","",""
"763.1000000089407","<div style=""font-size:24px; color:white;"">Did you see a second person in the moving dots?</div><p style=""font-size:24px;""> <i> Press ""F"" for No or ""J"" for Yes. </i> </p>","70","html-keyboard-response","268","715217","0.0-8.0-2.62","stim/test/noi020_act05_scr1_con0_tri036.mp4","020","05","1","0","036","63","A2PR7FI9TP8XLD","no"
"948.2999999970198","<div style=""font-size:24px; color:white;"">How confident are you? (from 1 to 5)</div><p style=""font-size:24px;""> <i> 1 = Not confident at all, 5 = Very confident. </i> </p>","52","html-keyboard-response","269","716166","0.0-8.0-3.62","stim/test/noi020_act05_scr1_con0_tri036.mp4","020","05","1","0","036","63","A2PR7FI9TP8XLD","4"
"null","<div id=""left-fixation"" style=""font-size: 60px; color: white; position: absolute; left: 40%; top: 50%; transform: translate(-50%, -50%);"">+</div>","null","html-keyboard-response","270","717168","0.0-8.0-0.63","stim/test/noi010_act10_scr0_con0_tri015.mp4","010","10","0","0","015","","",""
"null","","null","video-keyboard-response","271","723351","0.0-8.0-1.63","stim/test/noi010_act10_scr0_con0_tri015.mp4","010","10","0","0","015","","",""
"1286","<div style=""font-size:24px; color:white;"">Did you see a second person in the moving dots?</div><p style=""font-size:24px;""> <i> Press ""F"" for No or ""J"" for Yes. </i> </p>","74","html-keyboard-response","272","724638","0.0-8.0-2.63","stim/test/noi010_act10_scr0_con0_tri015.mp4","010","10","0","0","015","64","A2PR7FI9TP8XLD","yes"
"910.5","<div style=""font-size:24px; color:white;"">How confident are you? (from 1 to 5)</div><p style=""font-size:24px;""> <i> 1 = Not confident at all, 5 = Very confident. </i> </p>","51","html-keyboard-response","273","725549","0.0-8.0-3.63","stim/test/noi010_act10_scr0_con0_tri015.mp4","010","10","0","0","015","64","A2PR7FI9TP8XLD","3"
"null","<div id=""left-fixation"" style=""font-size: 60px; color: white; position: absolute; left: 40%; top: 50%; transform: translate(-50%, -50%);"">+</div>","null","html-keyboard-response","274","726562","0.0-8.0-0.64","stim/test/noi020_act08_scr1_con0_tri079.mp4","020","08","1","0","079","","",""
"null","","null","video-keyboard-response","275","732266","0.0-8.0-1.64","stim/test/noi020_act08_scr1_con0_tri079.mp4","020","08","1","0","079","","",""
"1336","<div style=""font-size:24px; color:white;"">Did you see a second person in the moving dots?</div><p style=""font-size:24px;""> <i> Press ""F"" for No or ""J"" for Yes. </i> </p>","70","html-keyboard-response","276","733602","0.0-8.0-2.64","stim/test/noi020_act08_scr1_con0_tri079.mp4","020","08","1","0","079","65","A2PR7FI9TP8XLD","no"
"1875.4000000059605","<div style=""font-size:24px; color:white;"">How confident are you? (from 1 to 5)</div><p style=""font-size:24px;""> <i> 1 = Not confident at all, 5 = Very confident. </i> </p>","52","html-keyboard-response","277","735478","0.0-8.0-3.64","stim/test/noi020_act08_scr1_con0_tri079.mp4","020","08","1","0","079","65","A2PR7FI9TP8XLD","4"
"null","<div id=""left-fixation"" style=""font-size: 60px; color: white; position: absolute; left: 40%; top: 50%; transform: translate(-50%, -50%);"">+</div>","null","html-keyboard-response","278","736491","0.0-8.0-0.65","stim/test/noi020_act06_scr0_con0_tri001.mp4","020","06","0","0","001","","",""
"null","","null","video-keyboard-response","279","741632","0.0-8.0-1.65","stim/test/noi020_act06_scr0_con0_tri001.mp4","020","06","0","0","001","","",""
"1106.5","<div style=""font-size:24px; color:white;"">Did you see a second person in the moving dots?</div><p style=""font-size:24px;""> <i> Press ""F"" for No or ""J"" for Yes. </i> </p>","70","html-keyboard-response","280","742739","0.0-8.0-2.65","stim/test/noi020_act06_scr0_con0_tri001.mp4","020","06","0","0","001","66","A2PR7FI9TP8XLD","no"
"780.3000000119209","<div style=""font-size:24px; color:white;"">How confident are you? (from 1 to 5)</div><p style=""font-size:24px;""> <i> 1 = Not confident at all, 5 = Very confident. </i> </p>","53","html-keyboard-response","281","743520","0.0-8.0-3.65","stim/test/noi020_act06_scr0_con0_tri001.mp4","020","06","0","0","001","66","A2PR7FI9TP8XLD","5"
"null","<div id=""right-fixation"" style=""font-size: 60px; color: white; position: absolute; left: 60%; top: 50%; transform: translate(-50%, -50%);"">+</div>","null","html-keyboard-response","282","744522","0.0-8.0-0.66","stim/test/noi020_act03_scr0_con0_tri100.mp4","020","03","0","0","100","","",""
"null","","null","video-keyboard-response","283","750229","0.0-8.0-1.66","stim/test/noi020_act03_scr0_con0_tri100.mp4","020","03","0","0","100","","",""
"1564.2000000029802","<div style=""font-size:24px; color:white;"">Did you see a second person in the moving dots?</div><p style=""font-size:24px;""> <i> Press ""F"" for No or ""J"" for Yes. </i> </p>","74","html-keyboard-response","284","751794","0.0-8.0-2.66","stim/test/noi020_act03_scr0_con0_tri100.mp4","020","03","0","0","100","67","A2PR7FI9TP8XLD","yes"
"2887","<div style=""font-size:24px; color:white;"">How confident are you? (from 1 to 5)</div><p style=""font-size:24px;""> <i> 1 = Not confident at all, 5 = Very confident. </i> </p>","51","html-keyboard-response","285","754681","0.0-8.0-3.66","stim/test/noi020_act03_scr0_con0_tri100.mp4","020","03","0","0","100","67","A2PR7FI9TP8XLD","3"
"null","<div id=""left-fixation"" style=""font-size: 60px; color: white; position: absolute; left: 40%; top: 50%; transform: translate(-50%, -50%);"">+</div>","null","html-keyboard-response","286","755695","0.0-8.0-0.67","stim/test/noi020_act10_scr1_con1_tri006.mp4","020","10","1","1","006","","",""
"null","","null","video-keyboard-response","287","761877","0.0-8.0-1.67","stim/test/noi020_act10_scr1_con1_tri006.mp4","020","10","1","1","006","","",""
"3670.9000000059605","<div style=""font-size:24px; color:white;"">Did you see a second person in the moving dots?</div><p style=""font-size:24px;""> <i> Press ""F"" for No or ""J"" for Yes. </i> </p>","70","html-keyboard-response","288","765549","0.0-8.0-2.67","stim/test/noi020_act10_scr1_con1_tri006.mp4","020","10","1","1","006","68","A2PR7FI9TP8XLD","no"
"1454.1000000089407","<div style=""font-size:24px; color:white;"">How confident are you? (from 1 to 5)</div><p style=""font-size:24px;""> <i> 1 = Not confident at all, 5 = Very confident. </i> </p>","51","html-keyboard-response","289","767004","0.0-8.0-3.67","stim/test/noi020_act10_scr1_con1_tri006.mp4","020","10","1","1","006","68","A2PR7FI9TP8XLD","3"
"null","<div id=""right-fixation"" style=""font-size: 60px; color: white; position: absolute; left: 60%; top: 50%; transform: translate(-50%, -50%);"">+</div>","null","html-keyboard-response","290","768013","0.0-8.0-0.68","stim/test/noi005_act01_scr0_con0_tri079.mp4","005","01","0","0","079","","",""
"null","","null","video-keyboard-response","291","773141","0.0-8.0-1.68","stim/test/noi005_act01_scr0_con0_tri079.mp4","005","01","0","0","079","","",""
"2407.8999999910593","<div style=""font-size:24px; color:white;"">Did you see a second person in the moving dots?</div><p style=""font-size:24px;""> <i> Press ""F"" for No or ""J"" for Yes. </i> </p>","70","html-keyboard-response","292","775550","0.0-8.0-2.68","stim/test/noi005_act01_scr0_con0_tri079.mp4","005","01","0","0","079","69","A2PR7FI9TP8XLD","no"
"1009.1999999880791","<div style=""font-size:24px; color:white;"">How confident are you? (from 1 to 5)</div><p style=""font-size:24px;""> <i> 1 = Not confident at all, 5 = Very confident. </i> </p>","51","html-keyboard-response","293","776559","0.0-8.0-3.68","stim/test/noi005_act01_scr0_con0_tri079.mp4","005","01","0","0","079","69","A2PR7FI9TP8XLD","3"
"null","<div id=""left-fixation"" style=""font-size: 60px; color: white; position: absolute; left: 40%; top: 50%; transform: translate(-50%, -50%);"">+</div>","null","html-keyboard-response","294","777570","0.0-8.0-0.69","stim/test/noi020_act08_scr1_con1_tri016.mp4","020","08","1","1","016","","",""
"null","","null","video-keyboard-response","295","783272","0.0-8.0-1.69","stim/test/noi020_act08_scr1_con1_tri016.mp4","020","08","1","1","016","","",""
"1936.4000000059605","<div style=""font-size:24px; color:white;"">Did you see a second person in the moving dots?</div><p style=""font-size:24px;""> <i> Press ""F"" for No or ""J"" for Yes. </i> </p>","70","html-keyboard-response","296","785209","0.0-8.0-2.69","stim/test/noi020_act08_scr1_con1_tri016.mp4","020","08","1","1","016","70","A2PR7FI9TP8XLD","no"
"1025.7000000029802","<div style=""font-size:24px; color:white;"">How confident are you? (from 1 to 5)</div><p style=""font-size:24px;""> <i> 1 = Not confident at all, 5 = Very confident. </i> </p>","51","html-keyboard-response","297","786235","0.0-8.0-3.69","stim/test/noi020_act08_scr1_con1_tri016.mp4","020","08","1","1","016","70","A2PR7FI9TP8XLD","3"
"null","<div id=""left-fixation"" style=""font-size: 60px; color: white; position: absolute; left: 40%; top: 50%; transform: translate(-50%, -50%);"">+</div>","null","html-keyboard-response","298","787238","0.0-8.0-0.70","stim/test/noi010_act08_scr0_con0_tri019.mp4","010","08","0","0","019","","",""
"null","","null","video-keyboard-response","299","792952","0.0-8.0-1.70","stim/test/noi010_act08_scr0_con0_tri019.mp4","010","08","0","0","019","","",""
"1241.1000000089407","<div style=""font-size:24px; color:white;"">Did you see a second person in the moving dots?</div><p style=""font-size:24px;""> <i> Press ""F"" for No or ""J"" for Yes. </i> </p>","74","html-keyboard-response","300","794194","0.0-8.0-2.70","stim/test/noi010_act08_scr0_con0_tri019.mp4","010","08","0","0","019","71","A2PR7FI9TP8XLD","yes"
"949.3000000119209","<div style=""font-size:24px; color:white;"">How confident are you? (from 1 to 5)</div><p style=""font-size:24px;""> <i> 1 = Not confident at all, 5 = Very confident. </i> </p>","52","html-keyboard-response","301","795144","0.0-8.0-3.70","stim/test/noi010_act08_scr0_con0_tri019.mp4","010","08","0","0","019","71","A2PR7FI9TP8XLD","4"
"null","<div id=""right-fixation"" style=""font-size: 60px; color: white; position: absolute; left: 60%; top: 50%; transform: translate(-50%, -50%);"">+</div>","null","html-keyboard-response","302","796157","0.0-8.0-0.71","stim/test/noi005_act03_scr0_con0_tri056.mp4","005","03","0","0","056","","",""
"null","","null","video-keyboard-response","303","801867","0.0-8.0-1.71","stim/test/noi005_act03_scr0_con0_tri056.mp4","005","03","0","0","056","","",""
"2290.800000011921","<div style=""font-size:24px; color:white;"">Did you see a second person in the moving dots?</div><p style=""font-size:24px;""> <i> Press ""F"" for No or ""J"" for Yes. </i> </p>","74","html-keyboard-response","304","804159","0.0-8.0-2.71","stim/test/noi005_act03_scr0_con0_tri056.mp4","005","03","0","0","056","72","A2PR7FI9TP8XLD","yes"
"961.5999999940395","<div style=""font-size:24px; color:white;"">How confident are you? (from 1 to 5)</div><p style=""font-size:24px;""> <i> 1 = Not confident at all, 5 = Very confident. </i> </p>","52","html-keyboard-response","305","805121","0.0-8.0-3.71","stim/test/noi005_act03_scr0_con0_tri056.mp4","005","03","0","0","056","72","A2PR7FI9TP8XLD","4"
"null","<p style='color:white;'>Data saving...</p><div class=""sk-cube-grid""><div class=""sk-cube sk-cube1""></div><div class=""sk-cube sk-cube2""></div><div class=""sk-cube sk-cube3""></div><div class=""sk-cube sk-cube4""></div><div class=""sk-cube sk-cube5""></div><div class=""sk-cube sk-cube6""></div><div class=""sk-cube sk-cube7""></div><div class=""sk-cube sk-cube8""></div><div class=""sk-cube sk-cube9""></div></div><p style='color:white;'>Do not close this window until the text dissapears.</p>","null","html-keyboard-response","306","810132","0.0-9.0","","","","","","","","",""
